STUDYID,USUBJID,SUBJID,SITEID,AGE,AGEU,AGEGR1,SEX,RACE,RACEN,ETHNIC,ETHNICN,COUNTRY,ARM,ACTARM,TRT01P,TRT01PN,TRT01A,TRT01AN,TRTSDT,TRTEDT,TRTDURN,TRTDURU,TR01SDT,TR01EDT,INCNFL,RANDFL,RANDEXC1,RANDEXC2,RANDEXC3,RANDEXC4,SAFFL,SAFEXC1,SAFEXC2,MITTFL,MITTEXC1,MITTEXC2,PPROTFL,PPROTEX1,PPROTEX2,PPROTEX3,PPROTEX4,COMPLFL,STDYDISP,STDYREAS,INCNDT,RANDDT,DTHDT,DTHFL,MISSDOSE,TP1TRTR,TP2TRTR,TP3TRTR,PSORTRTR,FUPVISIT,AEREPORT
BBC,BBC-10-041,041,10,44,YEARS,40-49 years,F,WHITE,5,HISPANIC OR LATINO,1,,ARM B,,ARM B,2,ARM B,2,,,,,,,Y,Y,,,,,N,,Subject did not take at least one dose of study medication,N,Subject is not included in the Safety Population,,N,Subject is not included in the MITT Population,Subject did not have a complete efficacy assessment at Week 12,,,N,Early Termination,Withdrawal By Subject,20DEC2006,20DEC2006,,N,,,,,N,N,N
BBC,BBC-10-042,042,10,25,YEARS,18-29 years,F,WHITE,5,NOT HISPANIC OR LATINO,2,,ARM C,,ARM C,3,ARM C,3,10JAN2007,13APR2007,94,DAY,10JAN2007,13APR2007,Y,Y,,,,,Y,,,Y,,,Y,,,,,Y,Subject Completed All Visits And Protocol Requirements,,18DEC2006,10JAN2007,,N,0,N,N,N,N,Y,Y
BBC,BBC-10-043,043,10,24,YEARS,18-29 years,F,WHITE,5,NOT HISPANIC OR LATINO,2,,ARM A,,ARM A,1,ARM A,1,09FEB2007,03MAY2007,84,DAY,09FEB2007,03MAY2007,Y,Y,,,,,Y,,,Y,,,Y,,,,,Y,Subject Completed All Visits And Protocol Requirements,,18DEC2006,09FEB2007,,N,0,N,N,N,N,Y,Y
BBC,BBC-10-145,145,10,31,YEARS,30-39 years,M,UNKNOWN,6,HISPANIC OR LATINO,1,,ARM A,,ARM A,1,ARM A,1,08DEC2006,30MAR2007,113,DAY,08DEC2006,30MAR2007,Y,Y,,,,,Y,,,Y,,,N,,Subject did not have a complete efficacy assessment at Week 12,,,N,Early Termination,Other,01DEC2006,08DEC2006,,N,0,N,N,N,N,N,Y
BBC,BBC-10-146,146,10,29,YEARS,18-29 years,M,WHITE,5,NOT HISPANIC OR LATINO,2,,ARM D,,ARM D,4,ARM D,4,11DEC2006,16MAR2007,96,DAY,11DEC2006,16MAR2007,Y,Y,,,,,Y,,,Y,,,Y,,,,,Y,Subject Completed All Visits And Protocol Requirements,,29NOV2006,11DEC2006,,N,2,N,N,N,N,Y,N
BBC,BBC-10-147,147,10,52,YEARS,50-65 years,M,BLACK OR AFRICAN AMERICAN,4,NOT HISPANIC OR LATINO,2,,ARM C,,ARM C,3,ARM C,3,12DEC2006,18MAR2007,97,DAY,12DEC2006,18MAR2007,Y,Y,,,,,Y,,,Y,,,Y,,,,,Y,Subject Completed All Visits And Protocol Requirements,,01DEC2006,12DEC2006,,N,0,N,N,N,N,Y,N
BBC,BBC-10-148,148,10,43,YEARS,40-49 years,M,WHITE,5,NOT HISPANIC OR LATINO,2,,ARM B,,ARM B,2,ARM B,2,12DEC2006,07MAR2007,86,DAY,12DEC2006,07MAR2007,Y,Y,,,,,Y,,,Y,,,Y,,,,,Y,Subject Completed All Visits And Protocol Requirements,,30NOV2006,12DEC2006,,N,7,N,N,N,N,Y,Y
BBC,BBC-10-149,149,10,57,YEARS,50-65 years,M,BLACK OR AFRICAN AMERICAN,4,NOT HISPANIC OR LATINO,2,,ARM A,,ARM A,1,ARM A,1,13DEC2006,13MAR2007,91,DAY,13DEC2006,13MAR2007,Y,Y,,,,,Y,,,Y,,,Y,,,,,Y,Subject Completed All Visits And Protocol Requirements,,30NOV2006,13DEC2006,,N,0,N,N,N,N,Y,N
BBC,BBC-10-150,150,10,25,YEARS,18-29 years,M,WHITE,5,NOT HISPANIC OR LATINO,2,,ARM D,,ARM D,4,ARM D,4,14DEC2006,13MAR2007,90,DAY,14DEC2006,13MAR2007,Y,Y,,,,,Y,,,Y,,,Y,,,,,Y,Subject Completed All Visits And Protocol Requirements,,29NOV2006,14DEC2006,,N,11,N,N,N,N,Y,N
BBC,BBC-10-151,151,10,66,YEARS,>65 years,M,WHITE,5,HISPANIC OR LATINO,1,,ARM B,,ARM B,2,ARM B,2,28DEC2006,22MAR2007,85,DAY,28DEC2006,22MAR2007,Y,Y,,,,,Y,,,Y,,,Y,,,,,Y,Subject Completed All Visits And Protocol Requirements,,08DEC2006,28DEC2006,,N,0,N,N,N,N,Y,N
BBC,BBC-10-152,152,10,63,YEARS,50-65 years,M,WHITE,5,NOT HISPANIC OR LATINO,2,,ARM C,,ARM C,3,ARM C,3,08JAN2007,04APR2007,87,DAY,08JAN2007,04APR2007,Y,Y,,,,,Y,,,Y,,,Y,,,,,Y,Subject Completed All Visits And Protocol Requirements,,15DEC2006,08JAN2007,,N,0,N,N,N,N,Y,N
BBC,BBC-11-048,048,11,38,YEARS,30-39 years,F,ASIAN,2,UNKNOWN,3,,ARM B,,ARM B,2,ARM B,2,18JAN2007,09APR2007,82,DAY,18JAN2007,09APR2007,Y,Y,,,,,Y,,,Y,,,Y,,,,,Y,Subject Completed All Visits And Protocol Requirements,,28DEC2006,18JAN2007,,N,1,N,N,N,N,Y,N
BBC,BBC-11-093,093,11,52,YEARS,50-65 years,M,WHITE,5,NOT HISPANIC OR LATINO,2,,ARM B,,ARM B,2,ARM B,2,08NOV2006,31JAN2007,85,DAY,08NOV2006,31JAN2007,Y,Y,,,,,Y,,,Y,,,Y,,,,,Y,Subject Completed All Visits And Protocol Requirements,,02NOV2006,08NOV2006,,N,0,N,N,N,N,Y,N
BBC,BBC-11-094,094,11,40,YEARS,40-49 years,M,WHITE,5,NOT HISPANIC OR LATINO,2,,ARM A,,ARM A,1,ARM A,1,08NOV2006,06FEB2007,91,DAY,08NOV2006,06FEB2007,Y,Y,,,,,Y,,,Y,,,Y,,,,,Y,Subject Completed All Visits And Protocol Requirements,,06NOV2006,08NOV2006,,N,6,N,N,N,N,Y,Y
BBC,BBC-11-095,095,11,62,YEARS,50-65 years,M,WHITE,5,HISPANIC OR LATINO,1,,ARM C,,ARM C,3,ARM C,3,10NOV2006,31JAN2007,83,DAY,10NOV2006,31JAN2007,Y,Y,,,,,Y,,,Y,,,Y,,,,,Y,Subject Completed All Visits And Protocol Requirements,,07NOV2006,10NOV2006,,N,0,N,N,N,N,Y,Y
BBC,BBC-11-096,096,11,53,YEARS,50-65 years,M,WHITE,5,NOT HISPANIC OR LATINO,2,,ARM D,,ARM D,4,ARM D,4,27NOV2006,05MAR2007,99,DAY,27NOV2006,05MAR2007,Y,Y,,,,,Y,,,Y,,,N,,,,Subject completed all visits but with major protocol violations,Y,Subject Completed All Visits But With Major Protocol Violations,,15NOV2006,27NOV2006,,N,4,N,N,N,N,Y,Y
BBC,BBC-11-097,097,11,24,YEARS,18-29 years,F,WHITE,5,NOT HISPANIC OR LATINO,2,,ARM A,,ARM A,1,ARM A,1,28NOV2006,20FEB2007,85,DAY,28NOV2006,20FEB2007,Y,Y,,,,,Y,,,Y,,,N,,,,Subject completed all visits but with major protocol violations,Y,Subject Completed All Visits But With Major Protocol Violations,,08NOV2006,28NOV2006,,N,0,N,N,N,N,Y,Y
BBC,BBC-11-098,098,11,67,YEARS,>65 years,M,WHITE,5,HISPANIC OR LATINO,1,,ARM C,,ARM C,3,ARM C,3,04DEC2006,26FEB2007,85,DAY,04DEC2006,26FEB2007,Y,Y,,,,,Y,,,Y,,,Y,,,,,Y,Subject Completed All Visits And Protocol Requirements,,27NOV2006,04DEC2006,,N,0,N,N,N,N,Y,Y
BBC,BBC-11-099,099,11,64,YEARS,50-65 years,M,WHITE,5,NOT HISPANIC OR LATINO,2,,ARM D,,ARM D,4,ARM D,4,08DEC2006,02MAR2007,85,DAY,08DEC2006,02MAR2007,Y,Y,,,,,Y,,,Y,,,Y,,,,,Y,Subject Completed All Visits And Protocol Requirements,,17NOV2006,08DEC2006,,N,0,N,N,N,N,Y,N
BBC,BBC-11-100,100,11,30,YEARS,30-39 years,F,WHITE,5,NOT HISPANIC OR LATINO,2,,ARM B,,ARM B,2,ARM B,2,11JAN2007,03APR2007,83,DAY,11JAN2007,03APR2007,Y,Y,,,,,Y,,,Y,,,N,,,,Subject completed all visits but with major protocol violations,Y,Subject Completed All Visits But With Major Protocol Violations,,18DEC2006,11JAN2007,,N,8,N,N,N,N,Y,N
BBC,BBC-12-057,057,12,25,YEARS,18-29 years,F,WHITE,5,NOT HISPANIC OR LATINO,2,,ARM B,,ARM B,2,ARM B,2,14NOV2006,,,,14NOV2006,,Y,Y,,,,,Y,,,N,,Subject did not have at least one post-baseline assessment of the primary endpoint,N,Subject is not included in the MITT Population,Subject did not have a complete efficacy assessment at Week 12,,,N,Early Termination,Other,19OCT2006,14NOV2006,,N,0,,,,N,N,N
BBC,BBC-12-058,058,12,75,YEARS,>65 years,F,WHITE,5,NOT HISPANIC OR LATINO,2,,ARM A,,ARM A,1,ARM A,1,15NOV2006,06FEB2007,84,DAY,15NOV2006,06FEB2007,Y,Y,,,,,Y,,,Y,,,Y,,,,,Y,Subject Completed All Visits And Protocol Requirements,,20OCT2006,15NOV2006,,N,2,N,N,N,N,Y,Y
BBC,BBC-12-059,059,12,40,YEARS,40-49 years,F,WHITE,5,NOT HISPANIC OR LATINO,2,,ARM D,,ARM D,4,ARM D,4,17NOV2006,07FEB2007,83,DAY,17NOV2006,07FEB2007,Y,Y,,,,,Y,,,Y,,,N,,Subject did not have a complete efficacy assessment at Week 12,,,N,Early Termination,Withdrawal By Subject,03NOV2006,17NOV2006,,N,3,,,,N,N,Y
BBC,BBC-12-060,060,12,62,YEARS,50-65 years,F,BLACK OR AFRICAN AMERICAN,4,NOT HISPANIC OR LATINO,2,,ARM C,,ARM C,3,ARM C,3,06DEC2006,27FEB2007,84,DAY,06DEC2006,27FEB2007,Y,Y,,,,,Y,,,Y,,,Y,,,,,Y,Subject Completed All Visits And Protocol Requirements,,20OCT2006,06DEC2006,,N,0,Y,Y,Y,Y,Y,Y
BBC,BBC-12-061,061,12,47,YEARS,40-49 years,F,WHITE,5,NOT HISPANIC OR LATINO,2,,ARM B,,ARM B,2,ARM B,2,04JAN2007,27MAR2007,83,DAY,04JAN2007,27MAR2007,Y,Y,,,,,Y,,,Y,,,N,,,Subject did not receive at least 85% of prescribed doses of study medication,,Y,Subject Completed All Visits And Protocol Requirements,,13DEC2006,04JAN2007,,N,13,N,N,N,N,Y,Y
BBC,BBC-12-062,062,12,70,YEARS,>65 years,M,WHITE,5,NOT HISPANIC OR LATINO,2,,ARM A,,ARM A,1,ARM A,1,15JAN2007,08APR2007,84,DAY,15JAN2007,08APR2007,Y,Y,,,,,Y,,,Y,,,Y,,,,,Y,Subject Completed All Visits And Protocol Requirements,,28DEC2006,15JAN2007,,N,0,N,N,N,N,Y,N
BBC,BBC-12-063,063,12,65,YEARS,50-65 years,F,WHITE,5,NOT HISPANIC OR LATINO,2,,ARM C,,ARM C,3,ARM C,3,23JAN2007,16APR2007,84,DAY,23JAN2007,16APR2007,Y,Y,,,,,Y,,,Y,,,Y,,,,,Y,Subject Completed All Visits And Protocol Requirements,,28DEC2006,23JAN2007,,N,0,N,N,N,N,Y,Y
BBC,BBC-13-025,025,13,24,YEARS,18-29 years,M,WHITE,5,NOT HISPANIC OR LATINO,2,,ARM A,,ARM A,1,ARM A,1,24OCT2006,03JAN2007,72,DAY,24OCT2006,03JAN2007,Y,Y,,,,,Y,,,Y,,,N,,,Subject did not receive at least 85% of prescribed doses of study medication,,Y,Subject Completed All Visits And Protocol Requirements,,17OCT2006,24OCT2006,,N,15,N,N,N,N,Y,Y
BBC,BBC-13-026,026,13,51,YEARS,50-65 years,F,WHITE,5,NOT HISPANIC OR LATINO,2,,ARM B,,ARM B,2,ARM B,2,02NOV2006,24JAN2007,84,DAY,02NOV2006,24JAN2007,Y,Y,,,,,Y,,,Y,,,Y,,,,,Y,Subject Completed All Visits And Protocol Requirements,,25OCT2006,02NOV2006,,N,2,N,N,N,N,Y,Y
BBC,BBC-13-027,027,13,19,YEARS,18-29 years,F,WHITE,5,HISPANIC OR LATINO,1,,ARM C,,ARM C,3,ARM C,3,02NOV2006,24JAN2007,84,DAY,02NOV2006,24JAN2007,Y,Y,,,,,Y,,,Y,,,N,,,Subject did not receive at least 85% of prescribed doses of study medication,,Y,Subject Completed All Visits And Protocol Requirements,,26OCT2006,02NOV2006,,N,16,Y,Y,Y,Y,Y,Y
BBC,BBC-13-028,028,13,47,YEARS,40-49 years,M,WHITE,5,NOT HISPANIC OR LATINO,2,,ARM D,,ARM D,4,ARM D,4,07NOV2006,29JAN2007,84,DAY,07NOV2006,29JAN2007,Y,Y,,,,,Y,,,Y,,,Y,,,,,Y,Subject Completed All Visits And Protocol Requirements,,30OCT2006,07NOV2006,,N,5,N,N,N,N,Y,Y
BBC,BBC-13-029,029,13,49,YEARS,40-49 years,F,BLACK OR AFRICAN AMERICAN,4,NOT HISPANIC OR LATINO,2,,ARM C,,ARM C,3,ARM C,3,15NOV2006,13FEB2007,91,DAY,15NOV2006,13FEB2007,Y,Y,,,,,Y,,,Y,,,Y,,,,,Y,Subject Completed All Visits And Protocol Requirements,,07NOV2006,15NOV2006,,N,0,N,N,N,N,Y,N
BBC,BBC-13-030,030,13,63,YEARS,50-65 years,M,WHITE,5,NOT HISPANIC OR LATINO,2,,ARM D,,ARM D,4,ARM D,4,16NOV2006,07FEB2007,84,DAY,16NOV2006,07FEB2007,Y,Y,,,,,Y,,,Y,,,Y,,,,,Y,Subject Completed All Visits And Protocol Requirements,,08NOV2006,16NOV2006,,N,0,N,N,N,N,Y,N
BBC,BBC-13-031,031,13,37,YEARS,30-39 years,F,WHITE,5,NOT HISPANIC OR LATINO,2,,ARM A,,ARM A,1,ARM A,1,21NOV2006,12FEB2007,84,DAY,21NOV2006,12FEB2007,Y,Y,,,,,Y,,,Y,,,Y,,,,,Y,Subject Completed All Visits And Protocol Requirements,,14NOV2006,21NOV2006,,N,0,N,N,N,N,Y,Y
BBC,BBC-13-032,032,13,47,YEARS,40-49 years,M,BLACK OR AFRICAN AMERICAN,4,NOT HISPANIC OR LATINO,2,,ARM B,,ARM B,2,ARM B,2,21NOV2006,18DEC2006,28,DAY,21NOV2006,18DEC2006,Y,Y,,,,,Y,,,Y,,,N,,Subject did not have a complete efficacy assessment at Week 12,,,N,Early Termination,Other,14NOV2006,21NOV2006,,N,0,,,,N,N,N
BBC,BBC-13-141,141,13,64,YEARS,50-65 years,F,WHITE,5,NOT HISPANIC OR LATINO,2,,ARM D,,ARM D,4,ARM D,4,21NOV2006,24NOV2006,4,DAY,21NOV2006,24NOV2006,Y,Y,,,,,Y,,,N,,Subject did not have at least one post-baseline assessment of the primary endpoint,N,Subject is not included in the MITT Population,Subject did not have a complete efficacy assessment at Week 12,,,N,Early Termination,Adverse Event,15NOV2006,21NOV2006,,N,0,,,,N,N,Y
BBC,BBC-13-142,142,13,55,YEARS,50-65 years,M,WHITE,5,NOT HISPANIC OR LATINO,2,,ARM C,,ARM C,3,ARM C,3,14DEC2006,07MAR2007,84,DAY,14DEC2006,07MAR2007,Y,Y,,,,,Y,,,Y,,,Y,,,,,Y,Subject Completed All Visits And Protocol Requirements,,06DEC2006,14DEC2006,,N,0,N,N,N,N,Y,N
BBC,BBC-13-143,143,13,33,YEARS,30-39 years,M,WHITE,5,NOT HISPANIC OR LATINO,2,,ARM B,,ARM B,2,ARM B,2,19DEC2006,13MAR2007,85,DAY,19DEC2006,13MAR2007,Y,Y,,,,,Y,,,Y,,,Y,,,,,Y,Subject Completed All Visits And Protocol Requirements,,11DEC2006,19DEC2006,,N,0,N,N,N,N,Y,Y
BBC,BBC-14-081,081,14,62,YEARS,50-65 years,F,WHITE,5,NOT HISPANIC OR LATINO,2,,ARM B,,ARM B,2,ARM B,2,07NOV2006,29JAN2007,84,DAY,07NOV2006,29JAN2007,Y,Y,,,,,Y,,,Y,,,Y,,,,,Y,Subject Completed All Visits And Protocol Requirements,,01NOV2006,07NOV2006,,N,0,N,N,N,N,Y,N
BBC,BBC-14-082,082,14,66,YEARS,>65 years,M,WHITE,5,HISPANIC OR LATINO,1,,ARM D,,ARM D,4,ARM D,4,13NOV2006,06FEB2007,86,DAY,13NOV2006,06FEB2007,Y,Y,,,,,Y,,,Y,,,Y,,,,,Y,Subject Completed All Visits And Protocol Requirements,,30OCT2006,13NOV2006,,N,0,N,N,N,N,Y,N
BBC,BBC-14-083,083,14,39,YEARS,30-39 years,F,WHITE,5,HISPANIC OR LATINO,1,,ARM C,,ARM C,3,ARM C,3,14NOV2006,14FEB2007,93,DAY,14NOV2006,14FEB2007,Y,Y,,,,,Y,,,Y,,,N,,Subject did not have a complete efficacy assessment at Week 12,,,N,Early Termination,Withdrawal By Subject,31OCT2006,14NOV2006,,N,12,,,,N,N,Y
BBC,BBC-14-084,084,14,72,YEARS,>65 years,M,WHITE,5,NOT HISPANIC OR LATINO,2,,ARM A,,ARM A,1,ARM A,1,14NOV2006,06FEB2007,85,DAY,14NOV2006,06FEB2007,Y,Y,,,,,Y,,,Y,,,Y,,,,,Y,Subject Completed All Visits And Protocol Requirements,,31OCT2006,14NOV2006,,N,2,N,N,N,N,Y,Y
BBC,BBC-14-085,085,14,56,YEARS,50-65 years,M,WHITE,5,NOT HISPANIC OR LATINO,2,,ARM A,,ARM A,1,ARM A,1,15NOV2006,06FEB2007,84,DAY,15NOV2006,06FEB2007,Y,Y,,,,,Y,,,Y,,,Y,,,,,Y,Subject Completed All Visits And Protocol Requirements,,31OCT2006,15NOV2006,,N,0,N,N,N,N,Y,N
BBC,BBC-14-086,086,14,49,YEARS,40-49 years,M,WHITE,5,NOT HISPANIC OR LATINO,2,,ARM C,,ARM C,3,ARM C,3,15NOV2006,06FEB2007,84,DAY,15NOV2006,06FEB2007,Y,Y,,,,,Y,,,Y,,,Y,,,,,Y,Subject Completed All Visits And Protocol Requirements,,06NOV2006,15NOV2006,,N,0,N,N,N,N,Y,N
BBC,BBC-14-087,087,14,54,YEARS,50-65 years,F,WHITE,5,NOT HISPANIC OR LATINO,2,,ARM D,,ARM D,4,ARM D,4,16NOV2006,07FEB2007,84,DAY,16NOV2006,07FEB2007,Y,Y,,,,,Y,,,Y,,,Y,,,,,Y,Subject Completed All Visits And Protocol Requirements,,01NOV2006,16NOV2006,,N,3,N,N,N,N,Y,Y
BBC,BBC-14-088,088,14,56,YEARS,50-65 years,F,BLACK OR AFRICAN AMERICAN,4,NOT HISPANIC OR LATINO,2,,ARM B,,ARM B,2,ARM B,2,20NOV2006,12FEB2007,85,DAY,20NOV2006,12FEB2007,Y,Y,,,,,Y,,,Y,,,Y,,,,,Y,Subject Completed All Visits And Protocol Requirements,,30OCT2006,20NOV2006,,N,6,N,N,N,N,Y,Y
BBC,BBC-14-117,117,14,44,YEARS,40-49 years,F,BLACK OR AFRICAN AMERICAN,4,HISPANIC OR LATINO,1,,ARM A,,ARM A,1,ARM A,1,20NOV2006,14FEB2007,87,DAY,20NOV2006,14FEB2007,Y,Y,,,,,Y,,,Y,,,Y,,,,,Y,Subject Completed All Visits And Protocol Requirements,,15NOV2006,20NOV2006,,N,0,N,N,N,N,Y,Y
BBC,BBC-14-118,118,14,34,YEARS,30-39 years,M,WHITE,5,NOT HISPANIC OR LATINO,2,,ARM B,,ARM B,2,ARM B,2,28NOV2006,20FEB2007,85,DAY,28NOV2006,20FEB2007,Y,Y,,,,,Y,,,Y,,,Y,,,,,Y,Subject Completed All Visits And Protocol Requirements,,13NOV2006,28NOV2006,,N,1,N,N,N,N,Y,N
BBC,BBC-14-119,119,14,48,YEARS,40-49 years,M,WHITE,5,HISPANIC OR LATINO,1,,ARM C,,ARM C,3,ARM C,3,28NOV2006,08JAN2007,42,DAY,28NOV2006,08JAN2007,Y,Y,,,,,Y,,,Y,,,N,,Subject did not have a complete efficacy assessment at Week 12,,,N,Early Termination,Other,31OCT2006,28NOV2006,,N,0,,,,N,N,N
BBC,BBC-14-120,120,14,70,YEARS,>65 years,M,WHITE,5,NOT HISPANIC OR LATINO,2,,ARM D,,ARM D,4,ARM D,4,28NOV2006,20FEB2007,85,DAY,28NOV2006,20FEB2007,Y,Y,,,,,Y,,,Y,,,Y,,,,,Y,Subject Completed All Visits And Protocol Requirements,,30OCT2006,28NOV2006,,N,0,N,N,N,N,Y,N
BBC,BBC-14-121,121,14,55,YEARS,50-65 years,M,WHITE,5,NOT HISPANIC OR LATINO,2,,ARM C,,ARM C,3,ARM C,3,29NOV2006,22FEB2007,86,DAY,29NOV2006,22FEB2007,Y,Y,,,,,Y,,,Y,,,Y,,,,,Y,Subject Completed All Visits And Protocol Requirements,,30OCT2006,29NOV2006,,N,0,N,N,N,N,Y,N
BBC,BBC-14-122,122,14,34,YEARS,30-39 years,M,WHITE,5,HISPANIC OR LATINO,1,,ARM D,,ARM D,4,ARM D,4,,,,,,,Y,Y,,,,,N,,Subject did not take at least one dose of study medication,N,Subject is not included in the Safety Population,,N,Subject is not included in the MITT Population,Subject did not have a complete efficacy assessment at Week 12,,,N,Early Termination,Other,11DEC2006,18DEC2006,,N,,,,,N,N,N
BBC,BBC-14-123,123,14,52,YEARS,50-65 years,F,ASIAN,2,NOT HISPANIC OR LATINO,2,,ARM A,,ARM A,1,ARM A,1,19DEC2006,12MAR2007,84,DAY,19DEC2006,12MAR2007,Y,Y,,,,,Y,,,Y,,,Y,,,,,Y,Subject Completed All Visits And Protocol Requirements,,21NOV2006,19DEC2006,,N,0,N,N,N,N,Y,Y
BBC,BBC-14-124,124,14,55,YEARS,50-65 years,M,WHITE,5,NOT HISPANIC OR LATINO,2,,ARM B,,ARM B,2,ARM B,2,28DEC2006,21MAR2007,84,DAY,28DEC2006,21MAR2007,Y,Y,,,,,Y,,,Y,,,Y,,,,,Y,Subject Completed All Visits And Protocol Requirements,,19DEC2006,28DEC2006,,N,0,N,N,N,N,Y,Y
BBC,BBC-15-153,153,15,65,YEARS,50-65 years,F,WHITE,5,NOT HISPANIC OR LATINO,2,,ARM D,,ARM D,4,ARM D,4,04JAN2007,17FEB2007,45,DAY,04JAN2007,17FEB2007,Y,Y,,,,,Y,,,Y,,,N,,Subject did not have a complete efficacy assessment at Week 12,,,N,Early Termination,Other,21DEC2006,04JAN2007,,N,1,,,,N,N,Y
BBC,BBC-15-154,154,15,70,YEARS,>65 years,F,WHITE,5,NOT HISPANIC OR LATINO,2,,ARM C,,ARM C,3,ARM C,3,10JAN2007,12FEB2007,34,DAY,10JAN2007,12FEB2007,Y,Y,,,,,Y,,,Y,,,N,,Subject did not have a complete efficacy assessment at Week 12,,,N,Early Termination,Other,29DEC2006,10JAN2007,,N,0,N,N,N,N,Y,N
BBC,BBC-15-155,155,15,56,YEARS,50-65 years,F,WHITE,5,NOT HISPANIC OR LATINO,2,,ARM A,,ARM A,1,ARM A,1,11JAN2007,05APR2007,85,DAY,11JAN2007,05APR2007,Y,Y,,,,,Y,,,Y,,,Y,,,,,Y,Subject Completed All Visits And Protocol Requirements,,28DEC2006,11JAN2007,,N,0,N,N,N,N,Y,Y
BBC,BBC-15-156,156,15,35,YEARS,30-39 years,F,WHITE,5,NOT HISPANIC OR LATINO,2,,ARM B,,ARM B,2,ARM B,2,11JAN2007,05APR2007,85,DAY,11JAN2007,05APR2007,Y,Y,,,,,Y,,,Y,,,N,,,Subject did not receive at least 85% of prescribed doses of study medication,,Y,Subject Completed All Visits And Protocol Requirements,,28DEC2006,11JAN2007,,N,13,N,N,N,N,Y,Y
BBC,BBC-16-045,045,16,68,YEARS,>65 years,M,WHITE,5,NOT HISPANIC OR LATINO,2,,ARM C,,ARM C,3,ARM C,3,28DEC2006,21MAR2007,84,DAY,28DEC2006,21MAR2007,Y,Y,,,,,Y,,,Y,,,Y,,,,,Y,Subject Completed All Visits And Protocol Requirements,,19DEC2006,28DEC2006,,N,0,N,N,N,N,Y,N
BBC,BBC-16-046,046,16,71,YEARS,>65 years,F,WHITE,5,NOT HISPANIC OR LATINO,2,,ARM D,,ARM D,4,ARM D,4,28DEC2006,27JAN2007,31,DAY,28DEC2006,27JAN2007,Y,Y,,,,,Y,,,Y,,,N,,Subject did not have a complete efficacy assessment at Week 12,,,N,Early Termination,Withdrawal By Subject,21DEC2006,28DEC2006,,N,0,,,,N,N,Y
BBC,BBC-16-047,047,16,74,YEARS,>65 years,M,WHITE,5,NOT HISPANIC OR LATINO,2,,ARM A,,ARM A,1,ARM A,1,02JAN2007,31JAN2007,30,DAY,02JAN2007,31JAN2007,Y,Y,,,,,Y,,,Y,,,N,,Subject did not have a complete efficacy assessment at Week 12,,,N,Early Termination,Withdrawal By Subject,19DEC2006,02JAN2007,,N,0,,,,N,N,N
BBC,BBC-16-157,157,16,62,YEARS,50-65 years,M,WHITE,5,HISPANIC OR LATINO,1,,ARM A,,ARM A,1,ARM A,1,14DEC2006,07MAR2007,84,DAY,14DEC2006,07MAR2007,Y,Y,,,,,Y,,,Y,,,Y,,,,,Y,Subject Completed All Visits And Protocol Requirements,,07DEC2006,14DEC2006,,N,0,N,N,Y,Y,Y,N
BBC,BBC-16-158,158,16,71,YEARS,>65 years,M,WHITE,5,NOT HISPANIC OR LATINO,2,,ARM B,,ARM B,2,ARM B,2,19DEC2006,20MAR2007,92,DAY,19DEC2006,20MAR2007,Y,Y,,,,,Y,,,Y,,,N,,,,Subject completed all visits but with major protocol violations,Y,Subject Completed All Visits But With Major Protocol Violations,,05DEC2006,19DEC2006,,N,0,N,N,N,N,Y,N
BBC,BBC-16-159,159,16,58,YEARS,50-65 years,F,WHITE,5,NOT HISPANIC OR LATINO,2,,ARM C,,ARM C,3,ARM C,3,21DEC2006,14MAR2007,84,DAY,21DEC2006,14MAR2007,Y,Y,,,,,Y,,,Y,,,Y,,,,,Y,Subject Completed All Visits And Protocol Requirements,,14DEC2006,21DEC2006,,N,0,N,N,N,N,Y,N
BBC,BBC-16-160,160,16,44,YEARS,40-49 years,M,WHITE,5,HISPANIC OR LATINO,1,,ARM D,,ARM D,4,ARM D,4,28DEC2006,19MAR2007,82,DAY,28DEC2006,19MAR2007,Y,Y,,,,,Y,,,Y,,,Y,,,,,Y,Subject Completed All Visits And Protocol Requirements,,19DEC2006,28DEC2006,,N,0,N,N,N,N,Y,Y
