Vital Signs
 Title 2
 Title 3
Safety Population
PARAMCD: BMI

——————————————————————————————————————————————————————————————————————————————————
 USUBJID     TRTA    SAFFL           PARAM            AVISIT     AVAL   BASE   CHG
——————————————————————————————————————————————————————————————————————————————————
ABC-01-049   ARM D     Y     Body Mass Index (BMI)   Screening   34.3   34.3   NA 
ABC-01-050   ARM B     Y     Body Mass Index (BMI)   Screening   36.5   36.5   NA 
ABC-01-051   ARM A     Y     Body Mass Index (BMI)   Screening   44.8   44.8   NA 
ABC-01-052   ARM C     Y     Body Mass Index (BMI)   Screening   39.9   39.9   NA 
ABC-01-053   ARM B     Y     Body Mass Index (BMI)   Screening    24     24    NA 
ABC-01-054   ARM D     Y     Body Mass Index (BMI)   Screening    40     40    NA 
ABC-01-055   ARM C     Y     Body Mass Index (BMI)   Screening   44.9   44.9   NA 
ABC-01-056   ARM A     Y     Body Mass Index (BMI)   Screening   33.6   33.6   NA 
ABC-01-113   ARM D     Y     Body Mass Index (BMI)   Screening   27.5   27.5   NA 
ABC-01-114   ARM B     Y     Body Mass Index (BMI)   Screening   31.6   31.6   NA 
ABC-02-033   ARM C     Y     Body Mass Index (BMI)   Screening    30     30    NA 
ABC-02-034   ARM A     Y     Body Mass Index (BMI)   Screening   22.2   22.2   NA 
ABC-02-035   ARM B     Y     Body Mass Index (BMI)   Screening   33.1   33.1   NA 
ABC-02-036   ARM D     Y     Body Mass Index (BMI)   Screening   32.3   32.3   NA 
ABC-02-037   ARM C     Y     Body Mass Index (BMI)   Screening   33.1   33.1   NA 
ABC-02-038   ARM A     Y     Body Mass Index (BMI)   Screening   29.7   29.7   NA 
ABC-02-039   ARM B     Y     Body Mass Index (BMI)   Screening   25.3   25.3   NA 
ABC-02-040   ARM D     Y     Body Mass Index (BMI)   Screening    39     39    NA 
ABC-02-109   ARM A     Y     Body Mass Index (BMI)   Screening   30.2   30.2   NA 
ABC-02-110   ARM B     Y     Body Mass Index (BMI)   Screening   26.7   26.7   NA 
ABC-02-111   ARM D     Y     Body Mass Index (BMI)   Screening   28.9   28.9   NA 
ABC-02-112   ARM C     Y     Body Mass Index (BMI)   Screening   24.4   24.4   NA 
ABC-03-001   ARM B     Y     Body Mass Index (BMI)   Screening   31.5   31.5   NA 
ABC-03-002   ARM A     Y     Body Mass Index (BMI)   Screening   36.6   36.6   NA 
ABC-03-003   ARM D     Y     Body Mass Index (BMI)   Screening   28.4   28.4   NA 
ABC-03-004   ARM C     Y     Body Mass Index (BMI)   Screening   34.9   34.9   NA 
ABC-03-006   ARM A     Y     Body Mass Index (BMI)   Screening   26.8   26.8   NA 
ABC-03-007   ARM B     Y     Body Mass Index (BMI)   Screening   28.2   28.2   NA 
ABC-03-008   ARM D     Y     Body Mass Index (BMI)   Screening   38.9   38.9   NA 
ABC-03-089   ARM D     Y     Body Mass Index (BMI)   Screening   23.6   23.6   NA 
ABC-03-091   ARM A     Y     Body Mass Index (BMI)   Screening   32.4   32.4   NA 
ABC-04-073   ARM D     Y     Body Mass Index (BMI)   Screening   32.2   32.2   NA 
ABC-04-074   ARM C     Y     Body Mass Index (BMI)   Screening   21.8   21.8   NA 
ABC-04-075   ARM A     Y     Body Mass Index (BMI)   Screening   28.6   28.6   NA 
ABC-04-076   ARM B     Y     Body Mass Index (BMI)   Screening   34.7   34.7   NA 
ABC-04-077   ARM C     Y     Body Mass Index (BMI)   Screening   30.4   30.4   NA 
ABC-04-078   ARM D     Y     Body Mass Index (BMI)   Screening   42.5   42.5   NA 
ABC-04-079   ARM B     Y     Body Mass Index (BMI)   Screening   28.1   28.1   NA 
ABC-04-080   ARM A     Y     Body Mass Index (BMI)   Screening    29     29    NA 
ABC-04-125   ARM D     Y     Body Mass Index (BMI)   Screening   27.2   27.2   NA 
ABC-04-126   ARM A     Y     Body Mass Index (BMI)   Screening   24.2   24.2   NA 
ABC-04-127   ARM B     Y     Body Mass Index (BMI)   Screening   32.7   32.7   NA 
ABC-04-129   ARM D     Y     Body Mass Index (BMI)   Screening   23.3   23.3   NA 
ABC-04-130   ARM C     Y     Body Mass Index (BMI)   Screening   26.4   26.4   NA 
ABC-04-131   ARM B     Y     Body Mass Index (BMI)   Screening   29.1   29.1   NA 
ABC-06-065   ARM C     Y     Body Mass Index (BMI)   Screening   26.2   26.2   NA 
ABC-06-066   ARM B     Y     Body Mass Index (BMI)   Screening   37.2   37.2   NA 
ABC-06-067   ARM D     Y     Body Mass Index (BMI)   Screening   34.3   34.3   NA 
ABC-06-068   ARM A     Y     Body Mass Index (BMI)   Screening   25.7   25.7   NA 
ABC-06-069   ARM A     Y     Body Mass Index (BMI)   Screening   22.7   22.7   NA 
ABC-06-070   ARM B     Y     Body Mass Index (BMI)   Screening   21.5   21.5   NA 
ABC-06-071   ARM D     Y     Body Mass Index (BMI)   Screening   28.2   28.2   NA 
ABC-06-072   ARM C     Y     Body Mass Index (BMI)   Screening   26.2   26.2   NA 
ABC-06-161   ARM C     Y     Body Mass Index (BMI)   Screening    28     28    NA 
ABC-06-163   ARM D     Y     Body Mass Index (BMI)   Screening    30     30    NA 
ABC-07-009   ARM C     Y     Body Mass Index (BMI)   Screening   29.5   29.5   NA 
ABC-07-010   ARM B     Y     Body Mass Index (BMI)   Screening   28.5   28.5   NA 
ABC-07-011   ARM D     Y     Body Mass Index (BMI)   Screening    21     21    NA 
ABC-07-012   ARM A     Y     Body Mass Index (BMI)   Screening   29.5   29.5   NA 
ABC-07-013   ARM D     Y     Body Mass Index (BMI)   Screening   37.7   37.7   NA 
ABC-07-014   ARM C     Y     Body Mass Index (BMI)   Screening   21.8   21.8   NA 
ABC-07-015   ARM B     Y     Body Mass Index (BMI)   Screening   36.6   36.6   NA 
ABC-07-016   ARM A     Y     Body Mass Index (BMI)   Screening    36     36    NA 
ABC-08-102   ARM D     Y     Body Mass Index (BMI)   Screening    38     38    NA 
ABC-08-103   ARM B     Y     Body Mass Index (BMI)   Screening   28.2   28.2   NA 
ABC-08-104   ARM A     Y     Body Mass Index (BMI)   Screening   46.9   46.9   NA 
ABC-08-105   ARM C     Y     Body Mass Index (BMI)   Screening   28.2   28.2   NA 
ABC-08-107   ARM D     Y     Body Mass Index (BMI)   Screening   34.8   34.8   NA 
ABC-08-108   ARM B     Y     Body Mass Index (BMI)   Screening   34.5   34.5   NA 
ABC-09-017   ARM C     Y     Body Mass Index (BMI)   Screening   24.6   24.6   NA 
ABC-09-018   ARM B     Y     Body Mass Index (BMI)   Screening   47.1   47.1   NA 
ABC-09-019   ARM D     Y     Body Mass Index (BMI)   Screening   22.2   22.2   NA 
ABC-09-020   ARM A     Y     Body Mass Index (BMI)   Screening    34     34    NA 
ABC-09-021   ARM B     Y     Body Mass Index (BMI)   Screening   23.9   23.9   NA 
ABC-09-023   ARM A     Y     Body Mass Index (BMI)   Screening   22.5   22.5   NA 
ABC-09-024   ARM C     Y     Body Mass Index (BMI)   Screening   34.6   34.6   NA 
ABC-09-137   ARM A     Y     Body Mass Index (BMI)   Screening   21.9   21.9   NA 
——————————————————————————————————————————————————————————————————————————————————

Confidential
 Page [pg] of [tpg]
\s\nVital Signs
 Title 2
 Title 3
Safety Population
PARAMCD: BMI

——————————————————————————————————————————————————————————————————————————————————
 USUBJID     TRTA    SAFFL           PARAM            AVISIT     AVAL   BASE   CHG
——————————————————————————————————————————————————————————————————————————————————
ABC-09-138   ARM D     Y     Body Mass Index (BMI)   Screening   30.1   30.1   NA 
ABC-09-139   ARM C     Y     Body Mass Index (BMI)   Screening   35.5   35.5   NA 
ABC-09-140   ARM B     Y     Body Mass Index (BMI)   Screening   45.9   45.9   NA 
——————————————————————————————————————————————————————————————————————————————————

Confidential
 Page [pg] of [tpg]
\s\nVital Signs
 Title 2
 Title 3
Safety Population
PARAMCD: PCTBSA

—————————————————————————————————————————————————————————————————————————————————————————————————————
 USUBJID     TRTA    SAFFL                  PARAM                      AVISIT       AVAL   BASE   CHG
—————————————————————————————————————————————————————————————————————————————————————————————————————
ABC-01-049   ARM D     Y     Body Surface Area to be Treated (%)   Day 1 Baseline    15     15    NA 
                                                                     Screening       15     15    NA 
ABC-01-050   ARM B     Y     Body Surface Area to be Treated (%)   Day 1 Baseline    13     13    NA 
                                                                     Screening       13     13    NA 
ABC-01-051   ARM A     Y     Body Surface Area to be Treated (%)   Day 1 Baseline    15     15    NA 
                                                                     Screening       15     15    NA 
ABC-01-052   ARM C     Y     Body Surface Area to be Treated (%)   Day 1 Baseline    15     15    NA 
                                                                     Screening       15     15    NA 
ABC-01-053   ARM B     Y     Body Surface Area to be Treated (%)   Day 1 Baseline    5      5     NA 
                                                                     Screening       5      5     NA 
ABC-01-054   ARM D     Y     Body Surface Area to be Treated (%)   Day 1 Baseline    15     15    NA 
                                                                     Screening       8      15    NA 
ABC-01-055   ARM C     Y     Body Surface Area to be Treated (%)   Day 1 Baseline    4      4     NA 
                                                                     Screening       4      4     NA 
ABC-01-056   ARM A     Y     Body Surface Area to be Treated (%)   Day 1 Baseline    14     14    NA 
                                                                     Screening       14     14    NA 
ABC-01-113   ARM D     Y     Body Surface Area to be Treated (%)   Day 1 Baseline    4      4     NA 
                                                                     Screening       4      4     NA 
ABC-01-114   ARM B     Y     Body Surface Area to be Treated (%)   Day 1 Baseline    15     15    NA 
                                                                     Screening       15     15    NA 
ABC-02-033   ARM C     Y     Body Surface Area to be Treated (%)   Day 1 Baseline    3      3     NA 
                                                                     Screening       3      3     NA 
ABC-02-034   ARM A     Y     Body Surface Area to be Treated (%)   Day 1 Baseline    5      5     NA 
                                                                     Screening       5      5     NA 
ABC-02-035   ARM B     Y     Body Surface Area to be Treated (%)   Day 1 Baseline    5      5     NA 
                                                                     Screening       4      5     NA 
ABC-02-036   ARM D     Y     Body Surface Area to be Treated (%)   Day 1 Baseline    12     12    NA 
                                                                     Screening       12     12    NA 
ABC-02-037   ARM C     Y     Body Surface Area to be Treated (%)   Day 1 Baseline    1      1     NA 
                                                                     Screening       1      1     NA 
ABC-02-038   ARM A     Y     Body Surface Area to be Treated (%)   Day 1 Baseline    6      6     NA 
                                                                     Screening       4      6     NA 
ABC-02-039   ARM B     Y     Body Surface Area to be Treated (%)   Day 1 Baseline    7      7     NA 
                                                                     Screening       7      7     NA 
ABC-02-040   ARM D     Y     Body Surface Area to be Treated (%)   Day 1 Baseline    2      2     NA 
                                                                     Screening       2      2     NA 
ABC-02-109   ARM A     Y     Body Surface Area to be Treated (%)   Day 1 Baseline    4      4     NA 
                                                                     Screening       5      4     NA 
ABC-02-110   ARM B     Y     Body Surface Area to be Treated (%)   Day 1 Baseline    9      9     NA 
                                                                     Screening       9      9     NA 
ABC-02-111   ARM D     Y     Body Surface Area to be Treated (%)   Day 1 Baseline    3      3     NA 
                                                                     Screening       4      3     NA 
ABC-02-112   ARM C     Y     Body Surface Area to be Treated (%)   Day 1 Baseline    4      4     NA 
                                                                     Screening       4      4     NA 
ABC-03-001   ARM B     Y     Body Surface Area to be Treated (%)   Day 1 Baseline    7      7     NA 
                                                                     Screening       7      7     NA 
ABC-03-002   ARM A     Y     Body Surface Area to be Treated (%)   Day 1 Baseline    15     15    NA 
                                                                     Screening       15     15    NA 
ABC-03-003   ARM D     Y     Body Surface Area to be Treated (%)   Day 1 Baseline    11     11    NA 
                                                                     Screening       11     11    NA 
ABC-03-004   ARM C     Y     Body Surface Area to be Treated (%)   Day 1 Baseline    12     12    NA 
                                                                     Screening       12     12    NA 
ABC-03-006   ARM A     Y     Body Surface Area to be Treated (%)   Day 1 Baseline    8      8     NA 
                                                                     Screening       8      8     NA 
ABC-03-007   ARM B     Y     Body Surface Area to be Treated (%)   Day 1 Baseline    2      2     NA 
                                                                     Screening       2      2     NA 
ABC-03-008   ARM D     Y     Body Surface Area to be Treated (%)   Day 1 Baseline    9      9     NA 
                                                                     Screening       8      9     NA 
ABC-03-089   ARM D     Y     Body Surface Area to be Treated (%)   Day 1 Baseline    7      7     NA 
                                                                     Screening       7      7     NA 
ABC-03-091   ARM A     Y     Body Surface Area to be Treated (%)   Day 1 Baseline    2      2     NA 
                                                                     Screening       2      2     NA 
ABC-04-073   ARM D     Y     Body Surface Area to be Treated (%)   Day 1 Baseline    1      1     NA 
                                                                     Screening       1      1     NA 
ABC-04-074   ARM C     Y     Body Surface Area to be Treated (%)   Day 1 Baseline    14     14    NA 
                                                                     Screening       11     14    NA 
ABC-04-075   ARM A     Y     Body Surface Area to be Treated (%)   Day 1 Baseline    4      4     NA 
                                                                     Screening       3      4     NA 
ABC-04-076   ARM B     Y     Body Surface Area to be Treated (%)   Day 1 Baseline    3      3     NA 
                                                                     Screening       5      3     NA 
ABC-04-077   ARM C     Y     Body Surface Area to be Treated (%)   Day 1 Baseline    6      6     NA 
                                                                     Screening       5      6     NA 
ABC-04-078   ARM D     Y     Body Surface Area to be Treated (%)   Day 1 Baseline    8      8     NA 
                                                                     Screening       10     8     NA 
ABC-04-079   ARM B     Y     Body Surface Area to be Treated (%)   Day 1 Baseline    12     12    NA 
                                                                     Screening       14     12    NA 
ABC-04-080   ARM A     Y     Body Surface Area to be Treated (%)   Day 1 Baseline    3      3     NA 
—————————————————————————————————————————————————————————————————————————————————————————————————————

Confidential
 Page [pg] of [tpg]
\s\nVital Signs
 Title 2
 Title 3
Safety Population
PARAMCD: PCTBSA

—————————————————————————————————————————————————————————————————————————————————————————————————————
 USUBJID     TRTA    SAFFL                  PARAM                      AVISIT       AVAL   BASE   CHG
—————————————————————————————————————————————————————————————————————————————————————————————————————
ABC-04-080   ARM A     Y     Body Surface Area to be Treated (%)     Screening       2      3     NA 
ABC-04-125   ARM D     Y     Body Surface Area to be Treated (%)   Day 1 Baseline    1      1     NA 
                                                                     Screening       1      1     NA 
ABC-04-126   ARM A     Y     Body Surface Area to be Treated (%)   Day 1 Baseline    4      4     NA 
                                                                     Screening       5      4     NA 
ABC-04-127   ARM B     Y     Body Surface Area to be Treated (%)   Day 1 Baseline    7      7     NA 
                                                                     Screening       6      7     NA 
ABC-04-129   ARM D     Y     Body Surface Area to be Treated (%)   Day 1 Baseline    2      2     NA 
                                                                     Screening       2      2     NA 
ABC-04-130   ARM C     Y     Body Surface Area to be Treated (%)   Day 1 Baseline    1      1     NA 
                                                                     Screening       1      1     NA 
ABC-04-131   ARM B     Y     Body Surface Area to be Treated (%)   Day 1 Baseline    8      8     NA 
                                                                     Screening       9      8     NA 
ABC-06-065   ARM C     Y     Body Surface Area to be Treated (%)   Day 1 Baseline    6      6     NA 
                                                                     Screening       6      6     NA 
ABC-06-066   ARM B     Y     Body Surface Area to be Treated (%)   Day 1 Baseline    14     14    NA 
                                                                     Screening       14     14    NA 
ABC-06-067   ARM D     Y     Body Surface Area to be Treated (%)   Day 1 Baseline    8      8     NA 
                                                                     Screening       8      8     NA 
ABC-06-068   ARM A     Y     Body Surface Area to be Treated (%)   Day 1 Baseline    8      8     NA 
                                                                     Screening       8      8     NA 
ABC-06-069   ARM A     Y     Body Surface Area to be Treated (%)   Day 1 Baseline    15     15    NA 
                                                                     Screening       15     15    NA 
ABC-06-070   ARM B     Y     Body Surface Area to be Treated (%)   Day 1 Baseline    5      5     NA 
                                                                     Screening       5      5     NA 
ABC-06-071   ARM D     Y     Body Surface Area to be Treated (%)   Day 1 Baseline    4      4     NA 
                                                                     Screening       4      4     NA 
ABC-06-072   ARM C     Y     Body Surface Area to be Treated (%)   Day 1 Baseline    4      4     NA 
                                                                     Screening       4      4     NA 
ABC-06-161   ARM C     Y     Body Surface Area to be Treated (%)   Day 1 Baseline    15     15    NA 
                                                                     Screening       9      15    NA 
ABC-06-163   ARM D     Y     Body Surface Area to be Treated (%)   Day 1 Baseline    13     13    NA 
                                                                     Screening       13     13    NA 
ABC-07-009   ARM C     Y     Body Surface Area to be Treated (%)   Day 1 Baseline    12     12    NA 
                                                                     Screening       12     12    NA 
ABC-07-010   ARM B     Y     Body Surface Area to be Treated (%)   Day 1 Baseline    6      6     NA 
                                                                     Screening       6      6     NA 
ABC-07-011   ARM D     Y     Body Surface Area to be Treated (%)   Day 1 Baseline    12     12    NA 
                                                                     Screening       12     12    NA 
ABC-07-012   ARM A     Y     Body Surface Area to be Treated (%)   Day 1 Baseline    7      7     NA 
                                                                     Screening       7      7     NA 
ABC-07-013   ARM D     Y     Body Surface Area to be Treated (%)   Day 1 Baseline    14     14    NA 
                                                                     Screening       14     14    NA 
ABC-07-014   ARM C     Y     Body Surface Area to be Treated (%)   Day 1 Baseline    14     14    NA 
                                                                     Screening       14     14    NA 
ABC-07-015   ARM B     Y     Body Surface Area to be Treated (%)   Day 1 Baseline    5      5     NA 
                                                                     Screening       5      5     NA 
ABC-07-016   ARM A     Y     Body Surface Area to be Treated (%)   Day 1 Baseline    13     13    NA 
                                                                     Screening       13     13    NA 
ABC-08-101   ARM C     Y     Body Surface Area to be Treated (%)   Day 1 Baseline    5      5     NA 
                                                                     Screening       6      5     NA 
ABC-08-102   ARM D     Y     Body Surface Area to be Treated (%)   Day 1 Baseline    4      4     NA 
                                                                     Screening       5      4     NA 
ABC-08-103   ARM B     Y     Body Surface Area to be Treated (%)   Day 1 Baseline    6      6     NA 
                                                                     Screening       6      6     NA 
ABC-08-104   ARM A     Y     Body Surface Area to be Treated (%)   Day 1 Baseline    9      9     NA 
                                                                     Screening       8      9     NA 
ABC-08-105   ARM C     Y     Body Surface Area to be Treated (%)   Day 1 Baseline    1      1     NA 
                                                                     Screening       1      1     NA 
ABC-08-106   ARM A     Y     Body Surface Area to be Treated (%)   Day 1 Baseline    7      7     NA 
                                                                     Screening       5      7     NA 
ABC-08-107   ARM D     Y     Body Surface Area to be Treated (%)   Day 1 Baseline    3      3     NA 
                                                                     Screening       2      3     NA 
ABC-08-108   ARM B     Y     Body Surface Area to be Treated (%)   Day 1 Baseline    4      4     NA 
                                                                     Screening       4      4     NA 
ABC-09-017   ARM C     Y     Body Surface Area to be Treated (%)   Day 1 Baseline    5      5     NA 
                                                                     Screening       5      5     NA 
ABC-09-018   ARM B     Y     Body Surface Area to be Treated (%)   Day 1 Baseline    12     12    NA 
                                                                     Screening       12     12    NA 
ABC-09-019   ARM D     Y     Body Surface Area to be Treated (%)   Day 1 Baseline    6      6     NA 
                                                                     Screening       6      6     NA 
ABC-09-020   ARM A     Y     Body Surface Area to be Treated (%)   Day 1 Baseline    6      6     NA 
                                                                     Screening       6      6     NA 
ABC-09-021   ARM B     Y     Body Surface Area to be Treated (%)   Day 1 Baseline    12     12    NA 
                                                                     Screening       10     12    NA 
ABC-09-023   ARM A     Y     Body Surface Area to be Treated (%)   Day 1 Baseline    10     10    NA 
                                                                     Screening       10     10    NA 
—————————————————————————————————————————————————————————————————————————————————————————————————————

Confidential
 Page [pg] of [tpg]
\s\nVital Signs
 Title 2
 Title 3
Safety Population
PARAMCD: PCTBSA

—————————————————————————————————————————————————————————————————————————————————————————————————————
 USUBJID     TRTA    SAFFL                  PARAM                      AVISIT       AVAL   BASE   CHG
—————————————————————————————————————————————————————————————————————————————————————————————————————
ABC-09-024   ARM C     Y     Body Surface Area to be Treated (%)   Day 1 Baseline    15     15    NA 
                                                                     Screening       15     15    NA 
ABC-09-137   ARM A     Y     Body Surface Area to be Treated (%)   Day 1 Baseline    10     10    NA 
                                                                     Screening       10     10    NA 
ABC-09-138   ARM D     Y     Body Surface Area to be Treated (%)   Day 1 Baseline    10     10    NA 
                                                                     Screening       10     10    NA 
ABC-09-139   ARM C     Y     Body Surface Area to be Treated (%)   Day 1 Baseline    8      8     NA 
                                                                     Screening       8      8     NA 
ABC-09-140   ARM B     Y     Body Surface Area to be Treated (%)   Day 1 Baseline    8      8     NA 
                                                                     Screening       8      8     NA 
—————————————————————————————————————————————————————————————————————————————————————————————————————

Confidential
 Page [pg] of [tpg]
\s\nVital Signs
 Title 2
 Title 3
Safety Population
PARAMCD: DIABP

—————————————————————————————————————————————————————————————————————————————————————————————————
 USUBJID     TRTA    SAFFL                PARAM                    AVISIT       AVAL   BASE   CHG
—————————————————————————————————————————————————————————————————————————————————————————————————
ABC-01-049   ARM D     Y     Diastolic Blood Pressure (mmHg)   Day 1 Baseline    76     76    NA 
                                                                 Screening       78     76    NA 
                                                                  Week 12        70     76    -6 
                                                                  Week 16        70     76    -6 
                                                                   Week 2        66     76    -10
                                                                   Week 4        84     76     8 
                                                                   Week 8        68     76    -8 
                                                                                 80     76     4 
ABC-01-050   ARM B     Y     Diastolic Blood Pressure (mmHg)   Day 1 Baseline    78     78    NA 
                                                                 Screening       80     78    NA 
                                                                  Week 12        64     78    -14
                                                                   Week 2        64     78    -14
                                                                   Week 4        86     78     8 
                                                                   Week 6        70     78    -8 
                                                                   Week 8        80     78     2 
                                                                     NA          82     78     4 
ABC-01-051   ARM A     Y     Diastolic Blood Pressure (mmHg)     Screening       90     90    NA 
                                                                  Week 12        80     90    -10
                                                                   Week 2        70     90    -20
                                                                   Week 4        84     90    -6 
                                                                   Week 6        70     90    -20
                                                                   Week 8        84     90    -6 
                                                                     NA          84     90    -6 
ABC-01-052   ARM C     Y     Diastolic Blood Pressure (mmHg)   Day 1 Baseline    68     68    NA 
                                                                 Screening       68     68    NA 
                                                                  Week 12        68     68     0 
                                                                  Week 16        67     68    -1 
                                                                   Week 2        58     68    -10
                                                                   Week 4        70     68     2 
                                                                   Week 6        60     68    -8 
                                                                   Week 8        60     68    -8 
ABC-01-053   ARM B     Y     Diastolic Blood Pressure (mmHg)   Day 1 Baseline    78     78    NA 
                                                                 Screening       72     78    NA 
                                                                   Week 2        78     78     0 
                                                                   Week 4        64     78    -14
ABC-01-054   ARM D     Y     Diastolic Blood Pressure (mmHg)      Week 12        98     NA    NA 
                                                                   Week 2        82     NA    NA 
                                                                   Week 4        90     NA    NA 
                                                                   Week 6       100     NA    NA 
                                                                     NA          90     NA    NA 
ABC-01-055   ARM C     Y     Diastolic Blood Pressure (mmHg)   Day 1 Baseline    80     80    NA 
                                                                 Screening       82     80    NA 
                                                                  Week 12        80     80     0 
                                                                   Week 4        88     80     8 
                                                                   Week 6        74     80    -6 
                                                                   Week 8        78     80    -2 
                                                                     NA          88     80     8 
                                                                                 80     80     0 
ABC-01-056   ARM A     Y     Diastolic Blood Pressure (mmHg)   Day 1 Baseline    84     84    NA 
                                                                 Screening       82     84    NA 
                                                                  Week 12        84     84     0 
                                                                  Week 16        90     84     6 
                                                                   Week 2        88     84     4 
                                                                   Week 4        80     84    -4 
                                                                   Week 6        86     84     2 
                                                                   Week 8        84     84     0 
ABC-01-113   ARM D     Y     Diastolic Blood Pressure (mmHg)   Day 1 Baseline    72     72    NA 
                                                                 Screening       80     72    NA 
                                                                  Week 12       100     72    28 
                                                                  Week 16       104     72    32 
                                                                   Week 2        84     72    12 
                                                                   Week 4        86     72    14 
                                                                   Week 6        80     72     8 
                                                                   Week 8        84     72    12 
ABC-01-114   ARM B     Y     Diastolic Blood Pressure (mmHg)   Day 1 Baseline    88     88    NA 
                                                                 Screening       90     88    NA 
                                                                  Week 12        84     88    -4 
                                                                  Week 16        90     88     2 
                                                                   Week 2        88     88     0 
                                                                   Week 4        80     88    -8 
                                                                   Week 6        80     88    -8 
                                                                   Week 8        80     88    -8 
ABC-02-033   ARM C     Y     Diastolic Blood Pressure (mmHg)   Day 1 Baseline    88     88    NA 
                                                                 Screening       78     88    NA 
                                                                  Week 12        84     88    -4 
                                                                  Week 16        86     88    -2 
                                                                   Week 2        70     88    -18
—————————————————————————————————————————————————————————————————————————————————————————————————

Confidential
 Page [pg] of [tpg]
\s\nVital Signs
 Title 2
 Title 3
Safety Population
PARAMCD: DIABP

—————————————————————————————————————————————————————————————————————————————————————————————————
 USUBJID     TRTA    SAFFL                PARAM                    AVISIT       AVAL   BASE   CHG
—————————————————————————————————————————————————————————————————————————————————————————————————
ABC-02-033   ARM C     Y     Diastolic Blood Pressure (mmHg)       Week 4        82     88    -6 
                                                                   Week 6        90     88     2 
                                                                   Week 8        82     88    -6 
ABC-02-034   ARM A     Y     Diastolic Blood Pressure (mmHg)   Day 1 Baseline    68     68    NA 
                                                                 Screening       74     68    NA 
                                                                  Week 12        78     68    10 
                                                                  Week 16        68     68     0 
                                                                   Week 2        66     68    -2 
                                                                   Week 4        68     68     0 
                                                                   Week 6        70     68     2 
                                                                   Week 8        76     68     8 
ABC-02-035   ARM B     Y     Diastolic Blood Pressure (mmHg)   Day 1 Baseline    94     94    NA 
                                                                 Screening       84     94    NA 
                                                                  Week 12        82     94    -12
                                                                  Week 16        90     94    -4 
                                                                   Week 2        90     94    -4 
                                                                   Week 4        92     94    -2 
                                                                   Week 6        92     94    -2 
                                                                   Week 8        86     94    -8 
ABC-02-036   ARM D     Y     Diastolic Blood Pressure (mmHg)   Day 1 Baseline    84     84    NA 
                                                                 Screening       92     84    NA 
                                                                  Week 12        86     84     2 
                                                                  Week 16        82     84    -2 
                                                                   Week 2        84     84     0 
                                                                   Week 4        88     84     4 
                                                                   Week 6        82     84    -2 
                                                                   Week 8        86     84     2 
ABC-02-037   ARM C     Y     Diastolic Blood Pressure (mmHg)   Day 1 Baseline    88     88    NA 
                                                                 Screening       88     88    NA 
                                                                  Week 12        70     88    -18
                                                                  Week 16        88     88     0 
                                                                   Week 2        86     88    -2 
                                                                   Week 4        86     88    -2 
                                                                   Week 6        86     88    -2 
                                                                   Week 8        78     88    -10
ABC-02-038   ARM A     Y     Diastolic Blood Pressure (mmHg)   Day 1 Baseline    92     92    NA 
                                                                 Screening       88     92    NA 
                                                                  Week 12        84     92    -8 
                                                                  Week 16        82     92    -10
                                                                   Week 2        92     92     0 
                                                                   Week 4        98     92     6 
                                                                   Week 6        94     92     2 
                                                                   Week 8        96     92     4 
ABC-02-039   ARM B     Y     Diastolic Blood Pressure (mmHg)   Day 1 Baseline    62     62    NA 
                                                                 Screening       82     62    NA 
                                                                  Week 12       102     62    40 
                                                                  Week 16        84     62    22 
                                                                   Week 2        60     62    -2 
                                                                   Week 4        78     62    16 
                                                                   Week 6        86     62    24 
                                                                   Week 8        78     62    16 
ABC-02-040   ARM D     Y     Diastolic Blood Pressure (mmHg)   Day 1 Baseline    84     84    NA 
                                                                 Screening       88     84    NA 
                                                                  Week 12        90     84     6 
                                                                  Week 16        78     84    -6 
                                                                   Week 2        88     84     4 
                                                                   Week 4        88     84     4 
                                                                   Week 6        88     84     4 
                                                                   Week 8        84     84     0 
ABC-02-109   ARM A     Y     Diastolic Blood Pressure (mmHg)   Day 1 Baseline    78     78    NA 
                                                                 Screening       80     78    NA 
                                                                  Week 12        78     78     0 
                                                                  Week 16        78     78     0 
                                                                   Week 2        76     78    -2 
                                                                   Week 4        78     78     0 
                                                                   Week 6        78     78     0 
                                                                   Week 8        76     78    -2 
ABC-02-110   ARM B     Y     Diastolic Blood Pressure (mmHg)   Day 1 Baseline    68     68    NA 
                                                                 Screening       78     68    NA 
                                                                  Week 12        74     68     6 
                                                                  Week 16        78     68    10 
                                                                   Week 2        78     68    10 
                                                                   Week 4        80     68    12 
                                                                   Week 6        82     68    14 
                                                                   Week 8        82     68    14 
ABC-02-111   ARM D     Y     Diastolic Blood Pressure (mmHg)   Day 1 Baseline    82     82    NA 
                                                                 Screening       98     82    NA 
—————————————————————————————————————————————————————————————————————————————————————————————————

Confidential
 Page [pg] of [tpg]
\s\nVital Signs
 Title 2
 Title 3
Safety Population
PARAMCD: DIABP

—————————————————————————————————————————————————————————————————————————————————————————————————
 USUBJID     TRTA    SAFFL                PARAM                    AVISIT       AVAL   BASE   CHG
—————————————————————————————————————————————————————————————————————————————————————————————————
ABC-02-111   ARM D     Y     Diastolic Blood Pressure (mmHg)      Week 12        80     82    -2 
                                                                  Week 16        90     82     8 
                                                                   Week 2        84     82     2 
                                                                   Week 4        78     82    -4 
                                                                   Week 6        92     82    10 
                                                                   Week 8        82     82     0 
ABC-02-112   ARM C     Y     Diastolic Blood Pressure (mmHg)   Day 1 Baseline    78     78    NA 
                                                                 Screening       86     78    NA 
                                                                  Week 12        82     78     4 
                                                                  Week 16        80     78     2 
                                                                   Week 2        70     78    -8 
                                                                   Week 4        82     78     4 
                                                                   Week 6        78     78     0 
                                                                   Week 8        84     78     6 
ABC-03-001   ARM B     Y     Diastolic Blood Pressure (mmHg)   Day 1 Baseline    94     94    NA 
                                                                 Screening       88     94    NA 
                                                                  Week 12       100     94     6 
                                                                  Week 16        89     94    -5 
                                                                   Week 2        91     94    -3 
                                                                   Week 4        94     94     0 
                                                                   Week 6        89     94    -5 
                                                                   Week 8        98     94     4 
ABC-03-002   ARM A     Y     Diastolic Blood Pressure (mmHg)   Day 1 Baseline    76     76    NA 
                                                                 Screening       81     76    NA 
                                                                  Week 12        67     76    -9 
                                                                  Week 16        68     76    -8 
                                                                   Week 2        76     76     0 
                                                                   Week 4        68     76    -8 
                                                                   Week 6        82     76     6 
                                                                   Week 8        73     76    -3 
ABC-03-003   ARM D     Y     Diastolic Blood Pressure (mmHg)   Day 1 Baseline    77     77    NA 
                                                                 Screening       73     77    NA 
                                                                  Week 12        65     77    -12
                                                                  Week 16        64     77    -13
                                                                   Week 2        66     77    -11
                                                                   Week 4        65     77    -12
                                                                   Week 6        76     77    -1 
                                                                   Week 8        71     77    -6 
ABC-03-004   ARM C     Y     Diastolic Blood Pressure (mmHg)   Day 1 Baseline    86     86    NA 
                                                                 Screening       80     86    NA 
                                                                  Week 12        85     86    -1 
                                                                  Week 16        86     86     0 
                                                                   Week 2        82     86    -4 
                                                                   Week 4        82     86    -4 
                                                                   Week 6        89     86     3 
                                                                   Week 8        80     86    -6 
ABC-03-006   ARM A     Y     Diastolic Blood Pressure (mmHg)   Day 1 Baseline    70     70    NA 
                                                                 Screening       72     70    NA 
                                                                  Week 12        75     70     5 
                                                                  Week 16        74     70     4 
                                                                   Week 2        72     70     2 
                                                                   Week 4        78     70     8 
                                                                   Week 6        71     70     1 
                                                                   Week 8        76     70     6 
ABC-03-007   ARM B     Y     Diastolic Blood Pressure (mmHg)   Day 1 Baseline    66     66    NA 
                                                                 Screening       62     66    NA 
                                                                  Week 12        79     66    13 
                                                                  Week 16        66     66     0 
                                                                   Week 2        69     66     3 
                                                                   Week 4        60     66    -6 
                                                                   Week 6        59     66    -7 
                                                                   Week 8        70     66     4 
ABC-03-008   ARM D     Y     Diastolic Blood Pressure (mmHg)   Day 1 Baseline    90     90    NA 
                                                                 Screening       95     90    NA 
                                                                  Week 16        81     90    -9 
                                                                   Week 2        80     90    -10
ABC-03-089   ARM D     Y     Diastolic Blood Pressure (mmHg)   Day 1 Baseline    73     73    NA 
                                                                 Screening       78     73    NA 
                                                                  Week 12        67     73    -6 
                                                                  Week 16        71     73    -2 
                                                                   Week 2        68     73    -5 
                                                                   Week 4        64     73    -9 
                                                                   Week 6        64     73    -9 
                                                                   Week 8        79     73     6 
ABC-03-091   ARM A     Y     Diastolic Blood Pressure (mmHg)   Day 1 Baseline    96     96    NA 
                                                                 Screening       86     96    NA 
                                                                  Week 12        88     96    -8 
—————————————————————————————————————————————————————————————————————————————————————————————————

Confidential
 Page [pg] of [tpg]
\s\nVital Signs
 Title 2
 Title 3
Safety Population
PARAMCD: DIABP

—————————————————————————————————————————————————————————————————————————————————————————————————
 USUBJID     TRTA    SAFFL                PARAM                    AVISIT       AVAL   BASE   CHG
—————————————————————————————————————————————————————————————————————————————————————————————————
ABC-03-091   ARM A     Y     Diastolic Blood Pressure (mmHg)      Week 16        79     96    -17
                                                                   Week 2        90     96    -6 
                                                                   Week 4        91     96    -5 
                                                                   Week 6        73     96    -23
                                                                   Week 8        85     96    -11
ABC-04-073   ARM D     Y     Diastolic Blood Pressure (mmHg)   Day 1 Baseline    74     74    NA 
                                                                 Screening       70     74    NA 
                                                                  Week 12        74     74     0 
                                                                  Week 16        76     74     2 
                                                                   Week 2        73     74    -1 
                                                                   Week 4        75     74     1 
                                                                   Week 6        72     74    -2 
                                                                   Week 8        78     74     4 
ABC-04-074   ARM C     Y     Diastolic Blood Pressure (mmHg)   Day 1 Baseline    67     67    NA 
                                                                 Screening       66     67    NA 
                                                                   Week 2        64     67    -3 
ABC-04-075   ARM A     Y     Diastolic Blood Pressure (mmHg)   Day 1 Baseline    81     81    NA 
                                                                 Screening       68     81    NA 
                                                                  Week 12        88     81     7 
                                                                  Week 16        79     81    -2 
                                                                   Week 2        78     81    -3 
                                                                   Week 4        92     81    11 
                                                                   Week 6        77     81    -4 
                                                                   Week 8        73     81    -8 
ABC-04-076   ARM B     Y     Diastolic Blood Pressure (mmHg)   Day 1 Baseline    86     86    NA 
                                                                 Screening       80     86    NA 
                                                                  Week 12        89     86     3 
                                                                  Week 16        89     86     3 
                                                                   Week 2        89     86     3 
                                                                   Week 4        90     86     4 
                                                                   Week 6        93     86     7 
                                                                   Week 8        84     86    -2 
ABC-04-077   ARM C     Y     Diastolic Blood Pressure (mmHg)   Day 1 Baseline    79     79    NA 
                                                                 Screening       78     79    NA 
                                                                  Week 12        79     79     0 
                                                                  Week 16        63     79    -16
                                                                   Week 2        81     79     2 
                                                                   Week 4        72     79    -7 
                                                                   Week 6        88     79     9 
                                                                   Week 8        80     79     1 
ABC-04-078   ARM D     Y     Diastolic Blood Pressure (mmHg)   Day 1 Baseline    80     80    NA 
                                                                 Screening       81     80    NA 
                                                                  Week 12        80     80     0 
                                                                  Week 16        92     80    12 
                                                                   Week 2        79     80    -1 
                                                                   Week 4        84     80     4 
                                                                   Week 6        83     80     3 
                                                                   Week 8        87     80     7 
ABC-04-079   ARM B     Y     Diastolic Blood Pressure (mmHg)   Day 1 Baseline    70     70    NA 
                                                                 Screening       70     70    NA 
                                                                  Week 12        59     70    -11
                                                                  Week 16        64     70    -6 
                                                                   Week 2        68     70    -2 
                                                                   Week 4        69     70    -1 
                                                                   Week 6        79     70     9 
                                                                   Week 8        72     70     2 
ABC-04-080   ARM A     Y     Diastolic Blood Pressure (mmHg)   Day 1 Baseline    79     79    NA 
                                                                 Screening       82     79    NA 
                                                                  Week 12        57     79    -22
                                                                  Week 16        68     79    -11
                                                                   Week 2        83     79     4 
                                                                   Week 4        67     79    -12
                                                                   Week 6        64     79    -15
                                                                   Week 8        60     79    -19
ABC-04-125   ARM D     Y     Diastolic Blood Pressure (mmHg)   Day 1 Baseline    64     64    NA 
                                                                 Screening       64     64    NA 
                                                                  Week 12        68     64     4 
                                                                  Week 16        62     64    -2 
                                                                   Week 2        60     64    -4 
                                                                   Week 4        67     64     3 
                                                                   Week 6        67     64     3 
                                                                   Week 8        63     64    -1 
ABC-04-126   ARM A     Y     Diastolic Blood Pressure (mmHg)   Day 1 Baseline    70     70    NA 
                                                                 Screening       66     70    NA 
                                                                  Week 12        74     70     4 
                                                                  Week 16        78     70     8 
                                                                   Week 2        72     70     2 
—————————————————————————————————————————————————————————————————————————————————————————————————

Confidential
 Page [pg] of [tpg]
\s\nVital Signs
 Title 2
 Title 3
Safety Population
PARAMCD: DIABP

—————————————————————————————————————————————————————————————————————————————————————————————————
 USUBJID     TRTA    SAFFL                PARAM                    AVISIT       AVAL   BASE   CHG
—————————————————————————————————————————————————————————————————————————————————————————————————
ABC-04-126   ARM A     Y     Diastolic Blood Pressure (mmHg)       Week 4        72     70     2 
                                                                   Week 6        74     70     4 
                                                                   Week 8        77     70     7 
ABC-04-127   ARM B     Y     Diastolic Blood Pressure (mmHg)   Day 1 Baseline    82     82    NA 
                                                                 Screening       74     82    NA 
                                                                  Week 12        81     82    -1 
                                                                  Week 16        81     82    -1 
                                                                   Week 2        74     82    -8 
                                                                   Week 4        83     82     1 
                                                                   Week 6        84     82     2 
                                                                   Week 8        87     82     5 
ABC-04-129   ARM D     Y     Diastolic Blood Pressure (mmHg)   Day 1 Baseline    69     69    NA 
                                                                 Screening       84     69    NA 
                                                                  Week 12        60     69    -9 
                                                                  Week 16        56     69    -13
                                                                   Week 2        76     69     7 
                                                                   Week 4        86     69    17 
                                                                   Week 6        68     69    -1 
                                                                   Week 8        67     69    -2 
ABC-04-130   ARM C     Y     Diastolic Blood Pressure (mmHg)   Day 1 Baseline    68     68    NA 
                                                                 Screening       84     68    NA 
                                                                  Week 12        68     68     0 
                                                                  Week 16        81     68    13 
                                                                   Week 2        91     68    23 
                                                                   Week 4        80     68    12 
                                                                   Week 6        62     68    -6 
                                                                   Week 8        82     68    14 
ABC-04-131   ARM B     Y     Diastolic Blood Pressure (mmHg)   Day 1 Baseline    77     77    NA 
                                                                 Screening       70     77    NA 
                                                                  Week 12        77     77     0 
                                                                  Week 16        61     77    -16
                                                                   Week 2        73     77    -4 
                                                                   Week 4        66     77    -11
                                                                   Week 6        77     77     0 
                                                                   Week 8        72     77    -5 
ABC-06-065   ARM C     Y     Diastolic Blood Pressure (mmHg)   Day 1 Baseline    78     78    NA 
                                                                 Screening       70     78    NA 
                                                                  Week 12        75     78    -3 
                                                                  Week 16        80     78     2 
                                                                   Week 2        75     78    -3 
                                                                   Week 4        76     78    -2 
                                                                   Week 6        70     78    -8 
                                                                   Week 8        80     78     2 
ABC-06-066   ARM B     Y     Diastolic Blood Pressure (mmHg)   Day 1 Baseline    78     78    NA 
                                                                 Screening       82     78    NA 
                                                                  Week 12        74     78    -4 
                                                                  Week 16        80     78     2 
                                                                   Week 2        90     78    12 
                                                                   Week 4        80     78     2 
                                                                   Week 6        80     78     2 
                                                                   Week 8        70     78    -8 
ABC-06-067   ARM D     Y     Diastolic Blood Pressure (mmHg)   Day 1 Baseline    70     70    NA 
                                                                 Screening       70     70    NA 
                                                                  Week 12        65     70    -5 
                                                                  Week 16        55     70    -15
                                                                   Week 2        70     70     0 
                                                                   Week 4        64     70    -6 
                                                                   Week 6        62     70    -8 
                                                                   Week 8        75     70     5 
ABC-06-068   ARM A     Y     Diastolic Blood Pressure (mmHg)   Day 1 Baseline    62     62    NA 
                                                                 Screening       80     62    NA 
                                                                  Week 12        80     62    18 
                                                                  Week 16        76     62    14 
                                                                   Week 2        72     62    10 
                                                                   Week 4        70     62     8 
                                                                   Week 6        50     62    -12
                                                                   Week 8        70     62     8 
ABC-06-069   ARM A     Y     Diastolic Blood Pressure (mmHg)   Day 1 Baseline    54     54    NA 
                                                                 Screening       60     54    NA 
                                                                   Week 2        60     54     6 
                                                                   Week 4        82     54    28 
                                                                   Week 6        58     54     4 
ABC-06-070   ARM B     Y     Diastolic Blood Pressure (mmHg)   Day 1 Baseline    80     80    NA 
                                                                 Screening       80     80    NA 
                                                                  Week 12        72     80    -8 
                                                                  Week 16        70     80    -10
                                                                   Week 2        75     80    -5 
—————————————————————————————————————————————————————————————————————————————————————————————————

Confidential
 Page [pg] of [tpg]
\s\nVital Signs
 Title 2
 Title 3
Safety Population
PARAMCD: DIABP

—————————————————————————————————————————————————————————————————————————————————————————————————
 USUBJID     TRTA    SAFFL                PARAM                    AVISIT       AVAL   BASE   CHG
—————————————————————————————————————————————————————————————————————————————————————————————————
ABC-06-070   ARM B     Y     Diastolic Blood Pressure (mmHg)       Week 4        75     80    -5 
                                                                   Week 6        84     80     4 
                                                                   Week 8        65     80    -15
ABC-06-071   ARM D     Y     Diastolic Blood Pressure (mmHg)   Day 1 Baseline    80     80    NA 
                                                                 Screening       80     80    NA 
                                                                  Week 12        84     80     4 
                                                                  Week 16        70     80    -10
                                                                   Week 2        70     80    -10
                                                                   Week 4        70     80    -10
                                                                   Week 6        72     80    -8 
                                                                   Week 8        80     80     0 
ABC-06-072   ARM C     Y     Diastolic Blood Pressure (mmHg)   Day 1 Baseline    80     80    NA 
                                                                 Screening       70     80    NA 
                                                                  Week 12        73     80    -7 
                                                                  Week 16        75     80    -5 
                                                                   Week 2        70     80    -10
                                                                   Week 4        74     80    -6 
                                                                   Week 6        75     80    -5 
                                                                   Week 8        80     80     0 
ABC-06-161   ARM C     Y     Diastolic Blood Pressure (mmHg)   Day 1 Baseline    80     80    NA 
                                                                 Screening       82     80    NA 
                                                                   Week 4        90     80    10 
ABC-06-163   ARM D     Y     Diastolic Blood Pressure (mmHg)   Day 1 Baseline    95     95    NA 
                                                                 Screening       90     95    NA 
                                                                  Week 12        90     95    -5 
                                                                  Week 16        80     95    -15
                                                                   Week 2        86     95    -9 
                                                                   Week 4        90     95    -5 
                                                                   Week 6        90     95    -5 
                                                                   Week 8        82     95    -13
ABC-07-009   ARM C     Y     Diastolic Blood Pressure (mmHg)   Day 1 Baseline    86     86    NA 
                                                                 Screening       92     86    NA 
                                                                  Week 12        72     86    -14
                                                                  Week 16        88     86     2 
                                                                   Week 2        86     86     0 
                                                                   Week 4        82     86    -4 
                                                                   Week 6        80     86    -6 
                                                                   Week 8        72     86    -14
ABC-07-010   ARM B     Y     Diastolic Blood Pressure (mmHg)   Day 1 Baseline    74     74    NA 
                                                                 Screening       72     74    NA 
                                                                  Week 12        72     74    -2 
                                                                  Week 16        72     74    -2 
                                                                   Week 2        72     74    -2 
                                                                   Week 4        68     74    -6 
                                                                   Week 6        72     74    -2 
                                                                   Week 8        72     74    -2 
ABC-07-011   ARM D     Y     Diastolic Blood Pressure (mmHg)   Day 1 Baseline    64     64    NA 
                                                                 Screening       58     64    NA 
                                                                  Week 12        60     64    -4 
                                                                  Week 16        60     64    -4 
                                                                   Week 2        68     64     4 
                                                                   Week 4        64     64     0 
                                                                   Week 6        62     64    -2 
                                                                   Week 8        62     64    -2 
ABC-07-012   ARM A     Y     Diastolic Blood Pressure (mmHg)   Day 1 Baseline    78     78    NA 
                                                                 Screening       70     78    NA 
                                                                  Week 12        74     78    -4 
                                                                  Week 16        82     78     4 
                                                                   Week 2        84     78     6 
                                                                   Week 4        78     78     0 
                                                                   Week 6        74     78    -4 
                                                                   Week 8        76     78    -2 
ABC-07-013   ARM D     Y     Diastolic Blood Pressure (mmHg)   Day 1 Baseline    76     76    NA 
                                                                 Screening       78     76    NA 
                                                                  Week 12        80     76     4 
                                                                  Week 16        82     76     6 
                                                                   Week 2        80     76     4 
                                                                   Week 4        76     76     0 
                                                                   Week 6        72     76    -4 
                                                                   Week 8        82     76     6 
ABC-07-014   ARM C     Y     Diastolic Blood Pressure (mmHg)   Day 1 Baseline    71     71    NA 
                                                                 Screening       90     71    NA 
                                                                  Week 12        74     71     3 
                                                                  Week 16        70     71    -1 
                                                                   Week 2        74     71     3 
                                                                   Week 4        70     71    -1 
                                                                   Week 6        76     71     5 
—————————————————————————————————————————————————————————————————————————————————————————————————

Confidential
 Page [pg] of [tpg]
\s\nVital Signs
 Title 2
 Title 3
Safety Population
PARAMCD: DIABP

—————————————————————————————————————————————————————————————————————————————————————————————————
 USUBJID     TRTA    SAFFL                PARAM                    AVISIT       AVAL   BASE   CHG
—————————————————————————————————————————————————————————————————————————————————————————————————
ABC-07-014   ARM C     Y     Diastolic Blood Pressure (mmHg)       Week 8        74     71     3 
ABC-07-015   ARM B     Y     Diastolic Blood Pressure (mmHg)   Day 1 Baseline    82     82    NA 
                                                                 Screening       88     82    NA 
                                                                  Week 12        84     82     2 
                                                                  Week 16        88     82     6 
                                                                   Week 2        80     82    -2 
                                                                   Week 4        90     82     8 
                                                                   Week 6        83     82     1 
                                                                   Week 8        86     82     4 
ABC-07-016   ARM A     Y     Diastolic Blood Pressure (mmHg)   Day 1 Baseline    85     85    NA 
                                                                 Screening       86     85    NA 
                                                                  Week 12        84     85    -1 
                                                                  Week 16        86     85     1 
                                                                   Week 2        86     85     1 
                                                                   Week 4        86     85     1 
                                                                   Week 6        86     85     1 
                                                                   Week 8        88     85     3 
ABC-08-101   ARM C     Y     Diastolic Blood Pressure (mmHg)   Day 1 Baseline    72     72    NA 
                                                                  Week 12        64     72    -8 
                                                                  Week 16        80     72     8 
                                                                   Week 2        76     72     4 
                                                                   Week 4        70     72    -2 
                                                                   Week 6        60     72    -12
                                                                   Week 8        78     72     6 
ABC-08-102   ARM D     Y     Diastolic Blood Pressure (mmHg)   Day 1 Baseline    70     70    NA 
                                                                 Screening       76     70    NA 
                                                                  Week 12        70     70     0 
                                                                  Week 16        80     70    10 
                                                                   Week 2        70     70     0 
                                                                   Week 4        82     70    12 
                                                                   Week 6        86     70    16 
                                                                   Week 8        78     70     8 
ABC-08-103   ARM B     Y     Diastolic Blood Pressure (mmHg)   Day 1 Baseline    80     80    NA 
                                                                 Screening       60     80    NA 
                                                                  Week 12        72     80    -8 
                                                                   Week 2        60     80    -20
                                                                   Week 4        82     80     2 
                                                                   Week 8        70     80    -10
ABC-08-104   ARM A     Y     Diastolic Blood Pressure (mmHg)   Day 1 Baseline    78     78    NA 
                                                                 Screening       78     78    NA 
                                                                  Week 12        78     78     0 
                                                                   Week 2        72     78    -6 
                                                                   Week 4        82     78     4 
                                                                   Week 6        72     78    -6 
                                                                   Week 8        78     78     0 
                                                                     NA          70     78    -8 
ABC-08-105   ARM C     Y     Diastolic Blood Pressure (mmHg)   Day 1 Baseline    90     90    NA 
                                                                 Screening       80     90    NA 
                                                                   Week 2        78     90    -12
                                                                   Week 4        80     90    -10
                                                                   Week 6        78     90    -12
                                                                   Week 8        90     90     0 
ABC-08-106   ARM A     Y     Diastolic Blood Pressure (mmHg)   Day 1 Baseline    60     60    NA 
                                                                 Screening       78     60    NA 
                                                                  Week 12        82     60    22 
                                                                   Week 2        82     60    22 
                                                                   Week 4        70     60    10 
                                                                   Week 6        70     60    10 
                                                                   Week 8        70     60    10 
                                                                     NA          78     60    18 
ABC-08-107   ARM D     Y     Diastolic Blood Pressure (mmHg)   Day 1 Baseline    80     80    NA 
                                                                 Screening       90     80    NA 
                                                                   Week 2        70     80    -10
                                                                   Week 4        84     80     4 
                                                                   Week 6        70     80    -10
ABC-08-108   ARM B     Y     Diastolic Blood Pressure (mmHg)   Day 1 Baseline    82     82    NA 
                                                                 Screening      100     82    NA 
                                                                   Week 2        78     82    -4 
                                                                   Week 4        86     82     4 
                                                                   Week 6        80     82    -2 
ABC-09-017   ARM C     Y     Diastolic Blood Pressure (mmHg)   Day 1 Baseline    78     78    NA 
                                                                 Screening       76     78    NA 
                                                                  Week 12        76     78    -2 
                                                                  Week 16        78     78     0 
                                                                   Week 2        76     78    -2 
                                                                   Week 4        72     78    -6 
                                                                   Week 6        80     78     2 
—————————————————————————————————————————————————————————————————————————————————————————————————

Confidential
 Page [pg] of [tpg]
\s\nVital Signs
 Title 2
 Title 3
Safety Population
PARAMCD: DIABP

—————————————————————————————————————————————————————————————————————————————————————————————————
 USUBJID     TRTA    SAFFL                PARAM                    AVISIT       AVAL   BASE   CHG
—————————————————————————————————————————————————————————————————————————————————————————————————
ABC-09-017   ARM C     Y     Diastolic Blood Pressure (mmHg)       Week 8        78     78     0 
ABC-09-018   ARM B     Y     Diastolic Blood Pressure (mmHg)   Day 1 Baseline    70     70    NA 
                                                                 Screening       72     70    NA 
                                                                  Week 12        70     70     0 
                                                                  Week 16        70     70     0 
                                                                   Week 2        74     70     4 
                                                                   Week 4        70     70     0 
                                                                   Week 6        68     70    -2 
                                                                   Week 8        70     70     0 
ABC-09-019   ARM D     Y     Diastolic Blood Pressure (mmHg)   Day 1 Baseline    68     68    NA 
                                                                 Screening       66     68    NA 
                                                                  Week 12        70     68     2 
                                                                  Week 16        80     68    12 
                                                                   Week 2        72     68     4 
                                                                   Week 4        70     68     2 
                                                                   Week 6        72     68     4 
                                                                   Week 8        70     68     2 
ABC-09-020   ARM A     Y     Diastolic Blood Pressure (mmHg)   Day 1 Baseline    80     80    NA 
                                                                 Screening       78     80    NA 
                                                                  Week 12        78     80    -2 
                                                                  Week 16        76     80    -4 
                                                                   Week 2        78     80    -2 
                                                                   Week 4        74     80    -6 
                                                                   Week 6        70     80    -10
                                                                   Week 8        72     80    -8 
ABC-09-021   ARM B     Y     Diastolic Blood Pressure (mmHg)   Day 1 Baseline    80     80    NA 
                                                                 Screening       68     80    NA 
ABC-09-023   ARM A     Y     Diastolic Blood Pressure (mmHg)   Day 1 Baseline    82     82    NA 
                                                                 Screening       78     82    NA 
                                                                  Week 12        84     82     2 
                                                                  Week 16        72     82    -10
                                                                   Week 2        76     82    -6 
                                                                   Week 4        78     82    -4 
                                                                   Week 6        72     82    -10
                                                                   Week 8        70     82    -12
ABC-09-024   ARM C     Y     Diastolic Blood Pressure (mmHg)   Day 1 Baseline    80     80    NA 
                                                                 Screening       84     80    NA 
                                                                  Week 12        78     80    -2 
                                                                  Week 16        80     80     0 
                                                                   Week 2        78     80    -2 
                                                                   Week 4        78     80    -2 
                                                                   Week 6        80     80     0 
                                                                   Week 8        72     80    -8 
ABC-09-137   ARM A     Y     Diastolic Blood Pressure (mmHg)   Day 1 Baseline    80     80    NA 
                                                                 Screening       80     80    NA 
                                                                  Week 12        76     80    -4 
                                                                  Week 16        80     80     0 
                                                                   Week 2        80     80     0 
                                                                   Week 4        78     80    -2 
                                                                   Week 6        80     80     0 
                                                                   Week 8        80     80     0 
ABC-09-138   ARM D     Y     Diastolic Blood Pressure (mmHg)   Day 1 Baseline    88     88    NA 
                                                                 Screening       96     88    NA 
                                                                  Week 12        70     88    -18
                                                                  Week 16        64     88    -24
                                                                   Week 2        78     88    -10
                                                                   Week 4        84     88    -4 
                                                                   Week 6        76     88    -12
                                                                   Week 8        70     88    -18
ABC-09-139   ARM C     Y     Diastolic Blood Pressure (mmHg)   Day 1 Baseline    76     76    NA 
                                                                 Screening       72     76    NA 
                                                                  Week 12        76     76     0 
                                                                  Week 16        76     76     0 
                                                                   Week 2        72     76    -4 
                                                                   Week 4        70     76    -6 
                                                                   Week 6        72     76    -4 
                                                                   Week 8        68     76    -8 
ABC-09-140   ARM B     Y     Diastolic Blood Pressure (mmHg)   Day 1 Baseline    74     74    NA 
                                                                 Screening       76     74    NA 
                                                                  Week 12        72     74    -2 
                                                                  Week 16        80     74     6 
                                                                   Week 2        72     74    -2 
                                                                   Week 4        76     74     2 
                                                                   Week 6        70     74    -4 
                                                                     NA          70     74    NA 
—————————————————————————————————————————————————————————————————————————————————————————————————

Confidential
 Page [pg] of [tpg]
\s\nVital Signs
 Title 2
 Title 3
Safety Population
PARAMCD: PULSE

———————————————————————————————————————————————————————————————————————————————————
 USUBJID     TRTA    SAFFL         PARAM             AVISIT       AVAL   BASE   CHG
———————————————————————————————————————————————————————————————————————————————————
ABC-01-049   ARM D     Y     Heart Rate (/min)   Day 1 Baseline    84     84    NA 
                                                   Screening       92     84    NA 
                                                    Week 12        60     84    -24
                                                    Week 16        72     84    -12
                                                     Week 2        84     84     0 
                                                     Week 4        76     84    -8 
                                                     Week 8        64     84    -20
                                                                   84     84     0 
ABC-01-050   ARM B     Y     Heart Rate (/min)   Day 1 Baseline    68     68    NA 
                                                   Screening       76     68    NA 
                                                    Week 12        72     68     4 
                                                     Week 2        68     68     0 
                                                     Week 4        82     68    14 
                                                     Week 6        72     68     4 
                                                     Week 8        80     68    12 
                                                       NA          88     68    20 
ABC-01-051   ARM A     Y     Heart Rate (/min)     Screening       76     76    NA 
                                                    Week 12        80     76     4 
                                                     Week 2        64     76    -12
                                                     Week 4        72     76    -4 
                                                     Week 6        60     76    -16
                                                     Week 8        72     76    -4 
                                                       NA          72     76    -4 
ABC-01-052   ARM C     Y     Heart Rate (/min)   Day 1 Baseline    68     68    NA 
                                                   Screening       72     68    NA 
                                                    Week 12        76     68     8 
                                                    Week 16        74     68     6 
                                                     Week 2        72     68     4 
                                                     Week 4        76     68     8 
                                                     Week 6        80     68    12 
                                                     Week 8        62     68    -6 
ABC-01-053   ARM B     Y     Heart Rate (/min)   Day 1 Baseline    62     62    NA 
                                                   Screening       80     62    NA 
                                                     Week 2        80     62    18 
                                                     Week 4        72     62    10 
ABC-01-054   ARM D     Y     Heart Rate (/min)   Day 1 Baseline    92     92    NA 
                                                   Screening      100     92    NA 
                                                    Week 12        72     92    -20
                                                                   84     92    -8 
                                                     Week 2        76     92    -16
                                                     Week 4        82     92    -10
                                                     Week 6        76     92    -16
                                                       NA          80     92    -12
ABC-01-055   ARM C     Y     Heart Rate (/min)   Day 1 Baseline    76     76    NA 
                                                   Screening       72     76    NA 
                                                    Week 12        68     76    -8 
                                                     Week 4        84     76     8 
                                                     Week 6        78     76     2 
                                                     Week 8        76     76     0 
                                                       NA          84     76     8 
                                                                   68     76    -8 
ABC-01-056   ARM A     Y     Heart Rate (/min)   Day 1 Baseline    82     82    NA 
                                                   Screening       76     82    NA 
                                                    Week 12        76     82    -6 
                                                    Week 16        88     82     6 
                                                     Week 2        64     82    -18
                                                     Week 4        76     82    -6 
                                                     Week 6        64     82    -18
                                                     Week 8        64     82    -18
ABC-01-113   ARM D     Y     Heart Rate (/min)   Day 1 Baseline    80     80    NA 
                                                   Screening       82     80    NA 
                                                    Week 12        72     80    -8 
                                                    Week 16        72     80    -8 
                                                     Week 2        84     80     4 
                                                     Week 4        76     80    -4 
                                                     Week 6        60     80    -20
                                                     Week 8        64     80    -16
ABC-01-114   ARM B     Y     Heart Rate (/min)   Day 1 Baseline    68     68    NA 
                                                   Screening       64     68    NA 
                                                    Week 12        60     68    -8 
                                                    Week 16        74     68     6 
                                                     Week 2        60     68    -8 
                                                     Week 4        62     68    -6 
                                                     Week 6        82     68    14 
                                                     Week 8        72     68     4 
ABC-02-033   ARM C     Y     Heart Rate (/min)   Day 1 Baseline    72     72    NA 
                                                   Screening       72     72    NA 
———————————————————————————————————————————————————————————————————————————————————

Confidential
 Page [pg] of [tpg]
\s\nVital Signs
 Title 2
 Title 3
Safety Population
PARAMCD: PULSE

———————————————————————————————————————————————————————————————————————————————————
 USUBJID     TRTA    SAFFL         PARAM             AVISIT       AVAL   BASE   CHG
———————————————————————————————————————————————————————————————————————————————————
ABC-02-033   ARM C     Y     Heart Rate (/min)      Week 12        78     72     6 
                                                    Week 16        78     72     6 
                                                     Week 2        72     72     0 
                                                     Week 4        84     72    12 
                                                     Week 6        84     72    12 
                                                     Week 8        78     72     6 
ABC-02-034   ARM A     Y     Heart Rate (/min)   Day 1 Baseline    66     66    NA 
                                                   Screening       66     66    NA 
                                                    Week 12        66     66     0 
                                                    Week 16        66     66     0 
                                                     Week 2        66     66     0 
                                                     Week 4        66     66     0 
                                                     Week 6        64     66    -2 
                                                     Week 8        66     66     0 
ABC-02-035   ARM B     Y     Heart Rate (/min)   Day 1 Baseline    66     66    NA 
                                                   Screening       66     66    NA 
                                                    Week 12        66     66     0 
                                                    Week 16        66     66     0 
                                                     Week 2        72     66     6 
                                                     Week 4        66     66     0 
                                                     Week 6        72     66     6 
                                                     Week 8        66     66     0 
ABC-02-036   ARM D     Y     Heart Rate (/min)   Day 1 Baseline    72     72    NA 
                                                   Screening       66     72    NA 
                                                    Week 12        72     72     0 
                                                    Week 16        72     72     0 
                                                     Week 2        72     72     0 
                                                     Week 4        72     72     0 
                                                     Week 6        66     72    -6 
                                                     Week 8        72     72     0 
ABC-02-037   ARM C     Y     Heart Rate (/min)   Day 1 Baseline    78     78    NA 
                                                   Screening       72     78    NA 
                                                    Week 12        80     78     2 
                                                    Week 16        84     78     6 
                                                     Week 2        66     78    -12
                                                     Week 4        72     78    -6 
                                                     Week 6        72     78    -6 
                                                     Week 8        78     78     0 
ABC-02-038   ARM A     Y     Heart Rate (/min)   Day 1 Baseline    72     72    NA 
                                                   Screening       66     72    NA 
                                                    Week 12        72     72     0 
                                                    Week 16        66     72    -6 
                                                     Week 2        72     72     0 
                                                     Week 4        78     72     6 
                                                     Week 6        74     72     2 
                                                     Week 8        84     72    12 
ABC-02-039   ARM B     Y     Heart Rate (/min)   Day 1 Baseline    66     66    NA 
                                                   Screening       72     66    NA 
                                                    Week 12        72     66     6 
                                                    Week 16        78     66    12 
                                                     Week 2        68     66     2 
                                                     Week 4        78     66    12 
                                                     Week 6        84     66    18 
                                                     Week 8        72     66     6 
ABC-02-040   ARM D     Y     Heart Rate (/min)   Day 1 Baseline    66     66    NA 
                                                   Screening       66     66    NA 
                                                    Week 12        60     66    -6 
                                                    Week 16        72     66     6 
                                                     Week 2        90     66    24 
                                                     Week 4        66     66     0 
                                                     Week 6        66     66     0 
                                                     Week 8        66     66     0 
ABC-02-109   ARM A     Y     Heart Rate (/min)   Day 1 Baseline    72     72    NA 
                                                   Screening       84     72    NA 
                                                    Week 12        72     72     0 
                                                    Week 16        78     72     6 
                                                     Week 2        72     72     0 
                                                     Week 4        90     72    18 
                                                     Week 6        84     72    12 
                                                     Week 8        66     72    -6 
ABC-02-110   ARM B     Y     Heart Rate (/min)   Day 1 Baseline    66     66    NA 
                                                   Screening       66     66    NA 
                                                    Week 12        68     66     2 
                                                    Week 16        66     66     0 
                                                     Week 2        60     66    -6 
                                                     Week 4        72     66     6 
                                                     Week 6        72     66     6 
———————————————————————————————————————————————————————————————————————————————————

Confidential
 Page [pg] of [tpg]
\s\nVital Signs
 Title 2
 Title 3
Safety Population
PARAMCD: PULSE

———————————————————————————————————————————————————————————————————————————————————
 USUBJID     TRTA    SAFFL         PARAM             AVISIT       AVAL   BASE   CHG
———————————————————————————————————————————————————————————————————————————————————
ABC-02-110   ARM B     Y     Heart Rate (/min)       Week 8        66     66     0 
ABC-02-111   ARM D     Y     Heart Rate (/min)   Day 1 Baseline    72     72    NA 
                                                   Screening       72     72    NA 
                                                    Week 12        72     72     0 
                                                    Week 16        72     72     0 
                                                     Week 2        80     72     8 
                                                     Week 4        72     72     0 
                                                     Week 6        66     72    -6 
                                                     Week 8        78     72     6 
ABC-02-112   ARM C     Y     Heart Rate (/min)   Day 1 Baseline    78     78    NA 
                                                   Screening       84     78    NA 
                                                    Week 12        78     78     0 
                                                    Week 16        78     78     0 
                                                     Week 2        76     78    -2 
                                                     Week 4        90     78    12 
                                                     Week 6        72     78    -6 
                                                     Week 8        84     78     6 
ABC-03-001   ARM B     Y     Heart Rate (/min)   Day 1 Baseline    74     74    NA 
                                                   Screening       74     74    NA 
                                                    Week 12        80     74     6 
                                                    Week 16        83     74     9 
                                                     Week 2        85     74    11 
                                                     Week 4        93     74    19 
                                                     Week 6        91     74    17 
                                                     Week 8        84     74    10 
ABC-03-002   ARM A     Y     Heart Rate (/min)   Day 1 Baseline   103    103    NA 
                                                   Screening       95    103    NA 
                                                    Week 12       100    103    -3 
                                                    Week 16        97    103    -6 
                                                     Week 2        93    103    -10
                                                     Week 4       102    103    -1 
                                                     Week 6        84    103    -19
                                                     Week 8        86    103    -17
ABC-03-003   ARM D     Y     Heart Rate (/min)   Day 1 Baseline    68     68    NA 
                                                   Screening       65     68    NA 
                                                    Week 12        63     68    -5 
                                                    Week 16        70     68     2 
                                                     Week 2        66     68    -2 
                                                     Week 4        55     68    -13
                                                     Week 6        63     68    -5 
                                                     Week 8        61     68    -7 
ABC-03-004   ARM C     Y     Heart Rate (/min)   Day 1 Baseline    95     95    NA 
                                                   Screening       82     95    NA 
                                                    Week 12        94     95    -1 
                                                    Week 16        86     95    -9 
                                                     Week 2       102     95     7 
                                                     Week 4       109     95    14 
                                                     Week 6       103     95     8 
                                                     Week 8        93     95    -2 
ABC-03-006   ARM A     Y     Heart Rate (/min)   Day 1 Baseline    66     66    NA 
                                                   Screening       62     66    NA 
                                                    Week 12        71     66     5 
                                                    Week 16        84     66    18 
                                                     Week 2        68     66     2 
                                                     Week 4        80     66    14 
                                                     Week 6        71     66     5 
                                                     Week 8        70     66     4 
ABC-03-007   ARM B     Y     Heart Rate (/min)   Day 1 Baseline    81     81    NA 
                                                   Screening       70     81    NA 
                                                    Week 12        86     81     5 
                                                    Week 16        83     81     2 
                                                     Week 2        76     81    -5 
                                                     Week 4        83     81     2 
                                                     Week 6        77     81    -4 
                                                     Week 8       109     81    28 
ABC-03-008   ARM D     Y     Heart Rate (/min)   Day 1 Baseline    61     61    NA 
                                                   Screening       97     61    NA 
                                                    Week 16        78     61    17 
                                                     Week 2        75     61    14 
ABC-03-089   ARM D     Y     Heart Rate (/min)   Day 1 Baseline    77     77    NA 
                                                   Screening       72     77    NA 
                                                    Week 12        77     77     0 
                                                    Week 16        78     77     1 
                                                     Week 2        84     77     7 
                                                     Week 4        80     77     3 
                                                     Week 6        72     77    -5 
                                                     Week 8        90     77    13 
———————————————————————————————————————————————————————————————————————————————————

Confidential
 Page [pg] of [tpg]
\s\nVital Signs
 Title 2
 Title 3
Safety Population
PARAMCD: PULSE

———————————————————————————————————————————————————————————————————————————————————
 USUBJID     TRTA    SAFFL         PARAM             AVISIT       AVAL   BASE   CHG
———————————————————————————————————————————————————————————————————————————————————
ABC-03-091   ARM A     Y     Heart Rate (/min)   Day 1 Baseline    73     73    NA 
                                                   Screening       76     73    NA 
                                                    Week 12        82     73     9 
                                                    Week 16        86     73    13 
                                                     Week 2        94     73    21 
                                                     Week 4        74     73     1 
                                                     Week 6        78     73     5 
                                                     Week 8        76     73     3 
ABC-04-073   ARM D     Y     Heart Rate (/min)   Day 1 Baseline    73     73    NA 
                                                   Screening       66     73    NA 
                                                    Week 12        63     73    -10
                                                    Week 16        70     73    -3 
                                                     Week 2        66     73    -7 
                                                     Week 4        73     73     0 
                                                     Week 6        64     73    -9 
                                                     Week 8        72     73    -1 
ABC-04-074   ARM C     Y     Heart Rate (/min)   Day 1 Baseline    67     67    NA 
                                                   Screening       66     67    NA 
                                                     Week 2        66     67    -1 
ABC-04-075   ARM A     Y     Heart Rate (/min)   Day 1 Baseline    63     63    NA 
                                                   Screening       57     63    NA 
                                                    Week 12        64     63     1 
                                                    Week 16        62     63    -1 
                                                     Week 2        60     63    -3 
                                                     Week 4        63     63     0 
                                                     Week 6        54     63    -9 
                                                     Week 8        65     63     2 
ABC-04-076   ARM B     Y     Heart Rate (/min)   Day 1 Baseline    79     79    NA 
                                                   Screening       72     79    NA 
                                                    Week 12        86     79     7 
                                                    Week 16        69     79    -10
                                                     Week 2        75     79    -4 
                                                     Week 4        76     79    -3 
                                                     Week 6        79     79     0 
                                                     Week 8        79     79     0 
ABC-04-077   ARM C     Y     Heart Rate (/min)   Day 1 Baseline    87     87    NA 
                                                   Screening       80     87    NA 
                                                    Week 12        94     87     7 
                                                    Week 16        83     87    -4 
                                                     Week 2        88     87     1 
                                                     Week 4        85     87    -2 
                                                     Week 6        90     87     3 
                                                     Week 8        96     87     9 
ABC-04-078   ARM D     Y     Heart Rate (/min)   Day 1 Baseline    71     71    NA 
                                                   Screening       63     71    NA 
                                                    Week 12        78     71     7 
                                                    Week 16        68     71    -3 
                                                     Week 2        73     71     2 
                                                     Week 4        80     71     9 
                                                     Week 6        78     71     7 
                                                     Week 8        82     71    11 
ABC-04-079   ARM B     Y     Heart Rate (/min)   Day 1 Baseline    61     61    NA 
                                                   Screening       68     61    NA 
                                                    Week 12        62     61     1 
                                                    Week 16        66     61     5 
                                                     Week 2        60     61    -1 
                                                     Week 4        64     61     3 
                                                     Week 6        73     61    12 
                                                     Week 8        65     61     4 
ABC-04-080   ARM A     Y     Heart Rate (/min)   Day 1 Baseline    66     66    NA 
                                                   Screening       69     66    NA 
                                                    Week 12        80     66    14 
                                                    Week 16        64     66    -2 
                                                     Week 2        80     66    14 
                                                     Week 4        70     66     4 
                                                     Week 6        74     66     8 
                                                     Week 8        81     66    15 
ABC-04-125   ARM D     Y     Heart Rate (/min)   Day 1 Baseline    59     59    NA 
                                                   Screening       59     59    NA 
                                                    Week 12        60     59     1 
                                                    Week 16        62     59     3 
                                                     Week 2        67     59     8 
                                                     Week 4        62     59     3 
                                                     Week 6        58     59    -1 
                                                     Week 8        62     59     3 
ABC-04-126   ARM A     Y     Heart Rate (/min)   Day 1 Baseline    72     72    NA 
                                                   Screening       74     72    NA 
———————————————————————————————————————————————————————————————————————————————————

Confidential
 Page [pg] of [tpg]
\s\nVital Signs
 Title 2
 Title 3
Safety Population
PARAMCD: PULSE

———————————————————————————————————————————————————————————————————————————————————
 USUBJID     TRTA    SAFFL         PARAM             AVISIT       AVAL   BASE   CHG
———————————————————————————————————————————————————————————————————————————————————
ABC-04-126   ARM A     Y     Heart Rate (/min)      Week 12        79     72     7 
                                                    Week 16        74     72     2 
                                                     Week 2        67     72    -5 
                                                     Week 4        80     72     8 
                                                     Week 6        69     72    -3 
                                                     Week 8        75     72     3 
ABC-04-127   ARM B     Y     Heart Rate (/min)   Day 1 Baseline    67     67    NA 
                                                   Screening       60     67    NA 
                                                    Week 12        84     67    17 
                                                    Week 16        69     67     2 
                                                     Week 2        64     67    -3 
                                                     Week 4        66     67    -1 
                                                     Week 6        84     67    17 
                                                     Week 8        65     67    -2 
ABC-04-129   ARM D     Y     Heart Rate (/min)   Day 1 Baseline    69     69    NA 
                                                   Screening       64     69    NA 
                                                    Week 12        64     69    -5 
                                                    Week 16        64     69    -5 
                                                     Week 2        75     69     6 
                                                     Week 4        80     69    11 
                                                     Week 6        60     69    -9 
                                                     Week 8        75     69     6 
ABC-04-130   ARM C     Y     Heart Rate (/min)   Day 1 Baseline    71     71    NA 
                                                   Screening       62     71    NA 
                                                    Week 12        64     71    -7 
                                                    Week 16        69     71    -2 
                                                     Week 2        67     71    -4 
                                                     Week 4        62     71    -9 
                                                     Week 6        64     71    -7 
                                                     Week 8        65     71    -6 
ABC-04-131   ARM B     Y     Heart Rate (/min)   Day 1 Baseline    84     84    NA 
                                                   Screening       60     84    NA 
                                                    Week 12        66     84    -18
                                                    Week 16        52     84    -32
                                                     Week 2        71     84    -13
                                                     Week 4        68     84    -16
                                                     Week 6        57     84    -27
                                                     Week 8        66     84    -18
ABC-06-065   ARM C     Y     Heart Rate (/min)   Day 1 Baseline    68     68    NA 
                                                   Screening       64     68    NA 
                                                    Week 12        52     68    -16
                                                    Week 16        65     68    -3 
                                                     Week 2        60     68    -8 
                                                     Week 4        60     68    -8 
                                                     Week 6        60     68    -8 
                                                     Week 8        66     68    -2 
ABC-06-066   ARM B     Y     Heart Rate (/min)   Day 1 Baseline    68     68    NA 
                                                   Screening       68     68    NA 
                                                    Week 12        60     68    -8 
                                                    Week 16        80     68    12 
                                                     Week 2        72     68     4 
                                                     Week 4        60     68    -8 
                                                     Week 6        92     68    24 
                                                     Week 8        72     68     4 
ABC-06-067   ARM D     Y     Heart Rate (/min)   Day 1 Baseline    68     68    NA 
                                                   Screening       64     68    NA 
                                                    Week 12        64     68    -4 
                                                    Week 16        80     68    12 
                                                     Week 2        80     68    12 
                                                     Week 4        80     68    12 
                                                     Week 6        64     68    -4 
                                                     Week 8        64     68    -4 
ABC-06-068   ARM A     Y     Heart Rate (/min)   Day 1 Baseline    60     60    NA 
                                                   Screening       60     60    NA 
                                                    Week 12        66     60     6 
                                                    Week 16        60     60     0 
                                                     Week 2        64     60     4 
                                                     Week 4        56     60    -4 
                                                     Week 6        68     60     8 
                                                     Week 8        56     60    -4 
ABC-06-069   ARM A     Y     Heart Rate (/min)   Day 1 Baseline    64     64    NA 
                                                   Screening       64     64    NA 
                                                     Week 2        60     64    -4 
                                                     Week 4        60     64    -4 
                                                     Week 6        68     64     4 
ABC-06-070   ARM B     Y     Heart Rate (/min)   Day 1 Baseline    80     80    NA 
                                                   Screening       64     80    NA 
———————————————————————————————————————————————————————————————————————————————————

Confidential
 Page [pg] of [tpg]
\s\nVital Signs
 Title 2
 Title 3
Safety Population
PARAMCD: PULSE

———————————————————————————————————————————————————————————————————————————————————
 USUBJID     TRTA    SAFFL         PARAM             AVISIT       AVAL   BASE   CHG
———————————————————————————————————————————————————————————————————————————————————
ABC-06-070   ARM B     Y     Heart Rate (/min)      Week 12        72     80    -8 
                                                    Week 16        60     80    -20
                                                     Week 2        80     80     0 
                                                     Week 4        60     80    -20
                                                     Week 6        64     80    -16
                                                     Week 8        74     80    -6 
ABC-06-071   ARM D     Y     Heart Rate (/min)   Day 1 Baseline    88     88    NA 
                                                   Screening       80     88    NA 
                                                    Week 12        80     88    -8 
                                                    Week 16        80     88    -8 
                                                     Week 2        80     88    -8 
                                                     Week 4        68     88    -20
                                                     Week 6        72     88    -16
                                                     Week 8        80     88    -8 
ABC-06-072   ARM C     Y     Heart Rate (/min)   Day 1 Baseline    60     60    NA 
                                                   Screening       80     60    NA 
                                                    Week 12        68     60     8 
                                                    Week 16       100     60    40 
                                                     Week 2        60     60     0 
                                                     Week 4        80     60    20 
                                                     Week 6        68     60     8 
                                                     Week 8        76     60    16 
ABC-06-161   ARM C     Y     Heart Rate (/min)   Day 1 Baseline    80     80    NA 
                                                   Screening       76     80    NA 
                                                     Week 4        72     80    -8 
ABC-06-163   ARM D     Y     Heart Rate (/min)   Day 1 Baseline    92     92    NA 
                                                   Screening       80     92    NA 
                                                    Week 12        88     92    -4 
                                                    Week 16        82     92    -10
                                                     Week 2        84     92    -8 
                                                     Week 4        80     92    -12
                                                     Week 6        92     92     0 
                                                     Week 8        80     92    -12
ABC-07-009   ARM C     Y     Heart Rate (/min)   Day 1 Baseline    72     72    NA 
                                                   Screening       72     72    NA 
                                                    Week 12        70     72    -2 
                                                    Week 16        68     72    -4 
                                                     Week 2        80     72     8 
                                                     Week 4        72     72     0 
                                                     Week 6        82     72    10 
                                                     Week 8        68     72    -4 
ABC-07-010   ARM B     Y     Heart Rate (/min)   Day 1 Baseline    72     72    NA 
                                                   Screening       70     72    NA 
                                                    Week 12        88     72    16 
                                                    Week 16        80     72     8 
                                                     Week 2        70     72    -2 
                                                     Week 4        88     72    16 
                                                     Week 6        84     72    12 
                                                     Week 8        84     72    12 
ABC-07-011   ARM D     Y     Heart Rate (/min)   Day 1 Baseline    62     62    NA 
                                                   Screening       58     62    NA 
                                                    Week 12        60     62    -2 
                                                    Week 16        80     62    18 
                                                     Week 2        62     62     0 
                                                     Week 4        70     62     8 
                                                     Week 6        78     62    16 
                                                     Week 8        62     62     0 
ABC-07-012   ARM A     Y     Heart Rate (/min)   Day 1 Baseline    74     74    NA 
                                                   Screening       72     74    NA 
                                                    Week 12        70     74    -4 
                                                    Week 16        90     74    16 
                                                     Week 2        69     74    -5 
                                                     Week 4        68     74    -6 
                                                     Week 6        80     74     6 
                                                     Week 8        74     74     0 
ABC-07-013   ARM D     Y     Heart Rate (/min)   Day 1 Baseline    64     64    NA 
                                                   Screening       88     64    NA 
                                                    Week 12        80     64    16 
                                                    Week 16        90     64    26 
                                                     Week 2        72     64     8 
                                                     Week 4        86     64    22 
                                                     Week 6        68     64     4 
                                                     Week 8        76     64    12 
ABC-07-014   ARM C     Y     Heart Rate (/min)   Day 1 Baseline    52     52    NA 
                                                   Screening       76     52    NA 
                                                    Week 12        60     52     8 
                                                    Week 16        64     52    12 
———————————————————————————————————————————————————————————————————————————————————

Confidential
 Page [pg] of [tpg]
\s\nVital Signs
 Title 2
 Title 3
Safety Population
PARAMCD: PULSE

———————————————————————————————————————————————————————————————————————————————————
 USUBJID     TRTA    SAFFL         PARAM             AVISIT       AVAL   BASE   CHG
———————————————————————————————————————————————————————————————————————————————————
ABC-07-014   ARM C     Y     Heart Rate (/min)       Week 2        64     52    12 
                                                     Week 4        60     52     8 
                                                     Week 6        52     52     0 
                                                     Week 8        72     52    20 
ABC-07-015   ARM B     Y     Heart Rate (/min)   Day 1 Baseline    78     78    NA 
                                                   Screening       78     78    NA 
                                                    Week 12        90     78    12 
                                                    Week 16        84     78     6 
                                                     Week 2        68     78    -10
                                                     Week 4        88     78    10 
                                                     Week 6        94     78    16 
                                                     Week 8        90     78    12 
ABC-07-016   ARM A     Y     Heart Rate (/min)   Day 1 Baseline    78     78    NA 
                                                   Screening       72     78    NA 
                                                    Week 12        80     78     2 
                                                    Week 16        78     78     0 
                                                     Week 2        76     78    -2 
                                                     Week 4        82     78     4 
                                                     Week 6        80     78     2 
                                                     Week 8        70     78    -8 
ABC-08-101   ARM C     Y     Heart Rate (/min)   Day 1 Baseline    72     72    NA 
                                                    Week 12        64     72    -8 
                                                    Week 16        80     72     8 
                                                     Week 2        64     72    -8 
                                                     Week 4        88     72    16 
                                                     Week 6        88     72    16 
                                                     Week 8        72     72     0 
ABC-08-102   ARM D     Y     Heart Rate (/min)   Day 1 Baseline    80     80    NA 
                                                   Screening       88     80    NA 
                                                    Week 12        72     80    -8 
                                                    Week 16        64     80    -16
                                                     Week 2        72     80    -8 
                                                     Week 4        84     80     4 
                                                     Week 6        80     80     0 
                                                     Week 8        78     80    -2 
ABC-08-103   ARM B     Y     Heart Rate (/min)   Day 1 Baseline    60     60    NA 
                                                   Screening       66     60    NA 
                                                    Week 12        60     60     0 
                                                     Week 2        64     60     4 
                                                     Week 4        68     60     8 
                                                     Week 8        60     60     0 
ABC-08-104   ARM A     Y     Heart Rate (/min)   Day 1 Baseline    88     88    NA 
                                                   Screening       80     88    NA 
                                                    Week 12        84     88    -4 
                                                     Week 2       100     88    12 
                                                     Week 4        90     88     2 
                                                     Week 6        88     88     0 
                                                     Week 8       100     88    12 
                                                       NA         100     88    12 
ABC-08-105   ARM C     Y     Heart Rate (/min)   Day 1 Baseline    88     88    NA 
                                                   Screening       88     88    NA 
                                                     Week 2        88     88     0 
                                                     Week 4        88     88     0 
                                                     Week 6        76     88    -12
                                                     Week 8        88     88     0 
ABC-08-106   ARM A     Y     Heart Rate (/min)   Day 1 Baseline    60     60    NA 
                                                   Screening       72     60    NA 
                                                    Week 12        72     60    12 
                                                     Week 2        72     60    12 
                                                     Week 4        80     60    20 
                                                     Week 6        88     60    28 
                                                     Week 8        60     60     0 
                                                       NA          60     60     0 
ABC-08-107   ARM D     Y     Heart Rate (/min)   Day 1 Baseline   100    100    NA 
                                                   Screening       74    100    NA 
                                                     Week 2       100    100     0 
                                                     Week 4        88    100    -12
                                                     Week 6        80    100    -20
ABC-08-108   ARM B     Y     Heart Rate (/min)   Day 1 Baseline    88     88    NA 
                                                   Screening       80     88    NA 
                                                     Week 2        60     88    -28
                                                     Week 4        64     88    -24
                                                     Week 6        72     88    -16
ABC-09-017   ARM C     Y     Heart Rate (/min)   Day 1 Baseline    70     70    NA 
                                                   Screening       68     70    NA 
                                                    Week 12        72     70     2 
                                                    Week 16        76     70     6 
———————————————————————————————————————————————————————————————————————————————————

Confidential
 Page [pg] of [tpg]
\s\nVital Signs
 Title 2
 Title 3
Safety Population
PARAMCD: PULSE

———————————————————————————————————————————————————————————————————————————————————
 USUBJID     TRTA    SAFFL         PARAM             AVISIT       AVAL   BASE   CHG
———————————————————————————————————————————————————————————————————————————————————
ABC-09-017   ARM C     Y     Heart Rate (/min)       Week 2        72     70     2 
                                                     Week 4        72     70     2 
                                                     Week 6        78     70     8 
                                                     Week 8        72     70     2 
ABC-09-018   ARM B     Y     Heart Rate (/min)   Day 1 Baseline    76     76    NA 
                                                   Screening       70     76    NA 
                                                    Week 12        76     76     0 
                                                    Week 16        72     76    -4 
                                                     Week 2        72     76    -4 
                                                     Week 4        70     76    -6 
                                                     Week 6        76     76     0 
                                                     Week 8        70     76    -6 
ABC-09-019   ARM D     Y     Heart Rate (/min)   Day 1 Baseline    76     76    NA 
                                                   Screening       70     76    NA 
                                                    Week 12        76     76     0 
                                                    Week 16        76     76     0 
                                                     Week 2        72     76    -4 
                                                     Week 4        78     76     2 
                                                     Week 6        76     76     0 
                                                     Week 8        70     76    -6 
ABC-09-020   ARM A     Y     Heart Rate (/min)   Day 1 Baseline    72     72    NA 
                                                   Screening       76     72    NA 
                                                    Week 12        76     72     4 
                                                    Week 16        76     72     4 
                                                     Week 2        76     72     4 
                                                     Week 4        78     72     6 
                                                     Week 6        76     72     4 
                                                     Week 8        70     72    -2 
ABC-09-021   ARM B     Y     Heart Rate (/min)   Day 1 Baseline    72     72    NA 
                                                   Screening       70     72    NA 
ABC-09-023   ARM A     Y     Heart Rate (/min)   Day 1 Baseline    76     76    NA 
                                                   Screening       70     76    NA 
                                                    Week 12        76     76     0 
                                                    Week 16        78     76     2 
                                                     Week 2        78     76     2 
                                                     Week 4        76     76     0 
                                                     Week 6        70     76    -6 
                                                     Week 8        80     76     4 
ABC-09-024   ARM C     Y     Heart Rate (/min)   Day 1 Baseline    70     70    NA 
                                                   Screening       76     70    NA 
                                                    Week 12        76     70     6 
                                                    Week 16        76     70     6 
                                                     Week 2        76     70     6 
                                                     Week 4        66     70    -4 
                                                     Week 6        72     70     2 
                                                     Week 8        70     70     0 
ABC-09-137   ARM A     Y     Heart Rate (/min)   Day 1 Baseline    72     72    NA 
                                                   Screening       66     72    NA 
                                                    Week 12        72     72     0 
                                                    Week 16        70     72    -2 
                                                     Week 2        72     72     0 
                                                     Week 4        76     72     4 
                                                     Week 6        70     72    -2 
                                                     Week 8        76     72     4 
ABC-09-138   ARM D     Y     Heart Rate (/min)   Day 1 Baseline    76     76    NA 
                                                   Screening       76     76    NA 
                                                    Week 12        70     76    -6 
                                                    Week 16        76     76     0 
                                                     Week 2        78     76     2 
                                                     Week 4        76     76     0 
                                                     Week 6        76     76     0 
                                                     Week 8        70     76    -6 
ABC-09-139   ARM C     Y     Heart Rate (/min)   Day 1 Baseline    72     72    NA 
                                                   Screening       78     72    NA 
                                                    Week 12        70     72    -2 
                                                    Week 16        70     72    -2 
                                                     Week 2        78     72     6 
                                                     Week 4        72     72     0 
                                                     Week 6        76     72     4 
                                                     Week 8        72     72     0 
ABC-09-140   ARM B     Y     Heart Rate (/min)   Day 1 Baseline    66     66    NA 
                                                   Screening       60     66    NA 
                                                    Week 12        76     66    10 
                                                    Week 16        76     66    10 
                                                     Week 2        72     66     6 
                                                     Week 4        76     66    10 
                                                     Week 6        78     66    12 
———————————————————————————————————————————————————————————————————————————————————

Confidential
 Page [pg] of [tpg]
\s\nVital Signs
 Title 2
 Title 3
Safety Population
PARAMCD: PULSE

———————————————————————————————————————————————————————————————————————————————————
 USUBJID     TRTA    SAFFL         PARAM             AVISIT       AVAL   BASE   CHG
———————————————————————————————————————————————————————————————————————————————————
ABC-09-140   ARM B     Y     Heart Rate (/min)         NA          72     66    NA 
———————————————————————————————————————————————————————————————————————————————————

Confidential
 Page [pg] of [tpg]
\s\nVital Signs
 Title 2
 Title 3
Safety Population
PARAMCD: HEIGHT

——————————————————————————————————————————————————————————————————————————
 USUBJID     TRTA    SAFFL      PARAM       AVISIT     AVAL    BASE    CHG
——————————————————————————————————————————————————————————————————————————
ABC-01-049   ARM D     Y     Height (cm)   Screening    178     178    NA 
ABC-01-050   ARM B     Y     Height (cm)   Screening   185.4   185.4   NA 
ABC-01-051   ARM A     Y     Height (cm)   Screening    161     161    NA 
ABC-01-052   ARM C     Y     Height (cm)   Screening    132     132    NA 
ABC-01-053   ARM B     Y     Height (cm)   Screening    173     173    NA 
ABC-01-054   ARM D     Y     Height (cm)   Screening    185     185    NA 
ABC-01-055   ARM C     Y     Height (cm)   Screening    131     131    NA 
ABC-01-056   ARM A     Y     Height (cm)   Screening    184     184    NA 
ABC-01-113   ARM D     Y     Height (cm)   Screening    177     177    NA 
ABC-01-114   ARM B     Y     Height (cm)   Screening    170     170    NA 
ABC-02-033   ARM C     Y     Height (cm)   Screening    165     165    NA 
ABC-02-034   ARM A     Y     Height (cm)   Screening   164.5   164.5   NA 
ABC-02-035   ARM B     Y     Height (cm)   Screening   180.5   180.5   NA 
ABC-02-036   ARM D     Y     Height (cm)   Screening   183.5   183.5   NA 
ABC-02-037   ARM C     Y     Height (cm)   Screening   195.5   195.5   NA 
ABC-02-038   ARM A     Y     Height (cm)   Screening    174     174    NA 
ABC-02-039   ARM B     Y     Height (cm)   Screening   170.5   170.5   NA 
ABC-02-040   ARM D     Y     Height (cm)   Screening    172     172    NA 
ABC-02-109   ARM A     Y     Height (cm)   Screening   182.5   182.5   NA 
ABC-02-110   ARM B     Y     Height (cm)   Screening    159     159    NA 
ABC-02-111   ARM D     Y     Height (cm)   Screening   179.5   179.5   NA 
ABC-02-112   ARM C     Y     Height (cm)   Screening   168.5   168.5   NA 
ABC-03-001   ARM B     Y     Height (cm)   Screening    169     169    NA 
ABC-03-002   ARM A     Y     Height (cm)   Screening    169     169    NA 
ABC-03-003   ARM D     Y     Height (cm)   Screening    176     176    NA 
ABC-03-004   ARM C     Y     Height (cm)   Screening   177.8   177.8   NA 
ABC-03-006   ARM A     Y     Height (cm)   Screening   173.9   173.9   NA 
ABC-03-007   ARM B     Y     Height (cm)   Screening    163     163    NA 
ABC-03-008   ARM D     Y     Height (cm)   Screening   171.4   171.4   NA 
ABC-03-089   ARM D     Y     Height (cm)   Screening    152     152    NA 
ABC-03-091   ARM A     Y     Height (cm)   Screening   172.7   172.7   NA 
ABC-04-073   ARM D     Y     Height (cm)   Screening   164.5   164.5   NA 
ABC-04-074   ARM C     Y     Height (cm)   Screening    162     162    NA 
ABC-04-075   ARM A     Y     Height (cm)   Screening    181     181    NA 
ABC-04-076   ARM B     Y     Height (cm)   Screening    174     174    NA 
ABC-04-077   ARM C     Y     Height (cm)   Screening    172     172    NA 
ABC-04-078   ARM D     Y     Height (cm)   Screening   164.5   164.5   NA 
ABC-04-079   ARM B     Y     Height (cm)   Screening   161.5   161.5   NA 
ABC-04-080   ARM A     Y     Height (cm)   Screening    169     169    NA 
ABC-04-125   ARM D     Y     Height (cm)   Screening    183     183    NA 
ABC-04-126   ARM A     Y     Height (cm)   Screening   174.5   174.5   NA 
ABC-04-127   ARM B     Y     Height (cm)   Screening    167     167    NA 
ABC-04-129   ARM D     Y     Height (cm)   Screening    172     172    NA 
ABC-04-130   ARM C     Y     Height (cm)   Screening    178     178    NA 
ABC-04-131   ARM B     Y     Height (cm)   Screening    180     180    NA 
ABC-06-065   ARM C     Y     Height (cm)   Screening    163     163    NA 
ABC-06-066   ARM B     Y     Height (cm)   Screening   162.6   162.6   NA 
ABC-06-067   ARM D     Y     Height (cm)   Screening   149.9   149.9   NA 
ABC-06-068   ARM A     Y     Height (cm)   Screening   162.6   162.6   NA 
ABC-06-069   ARM A     Y     Height (cm)   Screening   157.5   157.5   NA 
ABC-06-070   ARM B     Y     Height (cm)   Screening   177.8   177.8   NA 
ABC-06-071   ARM D     Y     Height (cm)   Screening   154.9   154.9   NA 
ABC-06-072   ARM C     Y     Height (cm)   Screening    188     188    NA 
ABC-06-161   ARM C     Y     Height (cm)   Screening    188     188    NA 
ABC-06-163   ARM D     Y     Height (cm)   Screening   180.3   180.3   NA 
ABC-07-009   ARM C     Y     Height (cm)   Screening   162.2   162.2   NA 
ABC-07-010   ARM B     Y     Height (cm)   Screening   158.7   158.7   NA 
ABC-07-011   ARM D     Y     Height (cm)   Screening   170.6   170.6   NA 
ABC-07-012   ARM A     Y     Height (cm)   Screening   159.1   159.1   NA 
ABC-07-013   ARM D     Y     Height (cm)   Screening   185.7   185.7   NA 
ABC-07-014   ARM C     Y     Height (cm)   Screening   177.4   177.4   NA 
ABC-07-015   ARM B     Y     Height (cm)   Screening   166.5   166.5   NA 
ABC-07-016   ARM A     Y     Height (cm)   Screening   190.5   190.5   NA 
ABC-08-102   ARM D     Y     Height (cm)   Screening    169     169    NA 
ABC-08-103   ARM B     Y     Height (cm)   Screening   182.9   182.9   NA 
ABC-08-104   ARM A     Y     Height (cm)   Screening    178     178    NA 
ABC-08-105   ARM C     Y     Height (cm)   Screening    183     183    NA 
ABC-08-106   ARM A     Y     Height (cm)   Screening    180     180    NA 
ABC-08-107   ARM D     Y     Height (cm)   Screening    182     182    NA 
ABC-08-108   ARM B     Y     Height (cm)   Screening    166     166    NA 
ABC-09-017   ARM C     Y     Height (cm)   Screening    170     170    NA 
ABC-09-018   ARM B     Y     Height (cm)   Screening    161     161    NA 
ABC-09-019   ARM D     Y     Height (cm)   Screening    175     175    NA 
ABC-09-020   ARM A     Y     Height (cm)   Screening    180     180    NA 
ABC-09-021   ARM B     Y     Height (cm)   Screening    165     165    NA 
ABC-09-023   ARM A     Y     Height (cm)   Screening   182.5   182.5   NA 
ABC-09-024   ARM C     Y     Height (cm)   Screening    170     170    NA 
——————————————————————————————————————————————————————————————————————————

Confidential
 Page [pg] of [tpg]
\s\nVital Signs
 Title 2
 Title 3
Safety Population
PARAMCD: HEIGHT

——————————————————————————————————————————————————————————————————————————
 USUBJID     TRTA    SAFFL      PARAM       AVISIT     AVAL    BASE    CHG
——————————————————————————————————————————————————————————————————————————
ABC-09-137   ARM A     Y     Height (cm)   Screening    175     175    NA 
ABC-09-138   ARM D     Y     Height (cm)   Screening    160     160    NA 
ABC-09-139   ARM C     Y     Height (cm)   Screening    180     180    NA 
ABC-09-140   ARM B     Y     Height (cm)   Screening    165     165    NA 
——————————————————————————————————————————————————————————————————————————

Confidential
 Page [pg] of [tpg]
\s\nVital Signs
 Title 2
 Title 3
Safety Population
PARAMCD: TEMP

———————————————————————————————————————————————————————————————————————————————————————
 USUBJID     TRTA    SAFFL          PARAM               AVISIT       AVAL   BASE   CHG 
———————————————————————————————————————————————————————————————————————————————————————
ABC-01-049   ARM D     Y     Oral Temperature (C)   Day 1 Baseline   36.4   36.4    NA 
                                                       Week 12       36.6   36.4   0.2 
                                                       Week 16       36.2   36.4   -0.2
                                                        Week 2       36.6   36.4   0.2 
                                                        Week 4       35.7   36.4   -0.7
                                                        Week 8       36.5   36.4   0.1 
                                                                     36.4   36.4    0  
ABC-01-050   ARM B     Y     Oral Temperature (C)   Day 1 Baseline   36.7   36.7    NA 
                                                      Screening      36.4   36.7    NA 
                                                       Week 12       37.2   36.7   0.5 
                                                        Week 2       36.7   36.7    0  
                                                        Week 4       36.6   36.7   -0.1
                                                        Week 6       37.3   36.7   0.6 
                                                        Week 8       37.1   36.7   0.4 
                                                          NA         36.8   36.7   0.1 
ABC-01-051   ARM A     Y     Oral Temperature (C)      Week 12       36.5    NA     NA 
                                                        Week 2       36.4    NA     NA 
                                                        Week 4        36     NA     NA 
                                                        Week 6       36.7    NA     NA 
                                                        Week 8       36.4    NA     NA 
                                                          NA         36.4    NA     NA 
ABC-01-052   ARM C     Y     Oral Temperature (C)   Day 1 Baseline   36.3   36.3    NA 
                                                      Screening      36.2   36.3    NA 
                                                       Week 12       36.8   36.3   0.5 
                                                       Week 16       36.7   36.3   0.4 
                                                        Week 2       37.1   36.3   0.8 
                                                        Week 4       36.4   36.3   0.1 
                                                        Week 6       36.2   36.3   -0.1
                                                        Week 8       36.9   36.3   0.6 
ABC-01-053   ARM B     Y     Oral Temperature (C)   Day 1 Baseline   35.7   35.7    NA 
                                                      Screening      36.3   35.7    NA 
                                                        Week 4       36.9   35.7   1.2 
ABC-01-054   ARM D     Y     Oral Temperature (C)   Day 1 Baseline   36.6   36.6    NA 
                                                      Screening      36.6   36.6    NA 
                                                       Week 12       36.9   36.6   0.3 
                                                                      37    36.6   0.4 
                                                        Week 2       36.3   36.6   -0.3
                                                        Week 4       36.2   36.6   -0.4
                                                        Week 6       36.2   36.6   -0.4
                                                          NA         36.7   36.6   0.1 
ABC-01-055   ARM C     Y     Oral Temperature (C)   Day 1 Baseline   36.7   36.7    NA 
                                                      Screening      37.4   36.7    NA 
                                                       Week 12       36.4   36.7   -0.3
                                                        Week 4       37.1   36.7   0.4 
                                                        Week 6       36.4   36.7   -0.3
                                                        Week 8       36.5   36.7   -0.2
                                                          NA         35.6   36.7   -1.1
                                                                     36.8   36.7   0.1 
ABC-01-056   ARM A     Y     Oral Temperature (C)   Day 1 Baseline    37     37     NA 
                                                      Screening      36.6    37     NA 
                                                       Week 12       36.9    37    -0.1
                                                       Week 16       36.6    37    -0.4
                                                        Week 2       37.1    37    0.1 
                                                        Week 4       36.5    37    -0.5
                                                        Week 6       36.7    37    -0.3
                                                        Week 8       36.8    37    -0.2
ABC-01-113   ARM D     Y     Oral Temperature (C)   Day 1 Baseline   36.1   36.1    NA 
                                                      Screening      36.3   36.1    NA 
                                                       Week 12       36.7   36.1   0.6 
                                                       Week 16        36    36.1   -0.1
                                                        Week 2        35    36.1   -1.1
                                                        Week 4       35.7   36.1   -0.4
                                                        Week 6       36.4   36.1   0.3 
                                                        Week 8       36.1   36.1    0  
ABC-01-114   ARM B     Y     Oral Temperature (C)   Day 1 Baseline   36.6   36.6    NA 
                                                      Screening      36.9   36.6    NA 
                                                       Week 12        37    36.6   0.4 
                                                       Week 16        36    36.6   -0.6
                                                        Week 2       36.4   36.6   -0.2
                                                        Week 4       36.7   36.6   0.1 
                                                        Week 6       36.6   36.6    0  
                                                        Week 8       36.9   36.6   0.3 
ABC-02-033   ARM C     Y     Oral Temperature (C)   Day 1 Baseline   36.2   36.2    NA 
                                                      Screening      36.3   36.2    NA 
                                                       Week 12       36.2   36.2    0  
                                                       Week 16       36.6   36.2   0.4 
                                                        Week 2       36.6   36.2   0.4 
———————————————————————————————————————————————————————————————————————————————————————

Confidential
 Page [pg] of [tpg]
\s\nVital Signs
 Title 2
 Title 3
Safety Population
PARAMCD: TEMP

———————————————————————————————————————————————————————————————————————————————————————
 USUBJID     TRTA    SAFFL          PARAM               AVISIT       AVAL   BASE   CHG 
———————————————————————————————————————————————————————————————————————————————————————
ABC-02-033   ARM C     Y     Oral Temperature (C)       Week 4       36.2   36.2    0  
                                                        Week 6       36.2   36.2    0  
                                                        Week 8       36.4   36.2   0.2 
ABC-02-034   ARM A     Y     Oral Temperature (C)   Day 1 Baseline   36.3   36.3    NA 
                                                      Screening      36.4   36.3    NA 
                                                       Week 12       36.1   36.3   -0.2
                                                       Week 16       36.5   36.3   0.2 
                                                        Week 2       36.5   36.3   0.2 
                                                        Week 4       36.1   36.3   -0.2
                                                        Week 6       36.6   36.3   0.3 
                                                        Week 8       36.8   36.3   0.5 
ABC-02-035   ARM B     Y     Oral Temperature (C)   Day 1 Baseline   36.1   36.1    NA 
                                                      Screening      35.6   36.1    NA 
                                                       Week 12       36.2   36.1   0.1 
                                                       Week 16       36.3   36.1   0.2 
                                                        Week 2        36    36.1   -0.1
                                                        Week 4       36.1   36.1    0  
                                                        Week 6       36.4   36.1   0.3 
                                                        Week 8       36.1   36.1    0  
ABC-02-036   ARM D     Y     Oral Temperature (C)   Day 1 Baseline   36.5   36.5    NA 
                                                      Screening      36.9   36.5    NA 
                                                       Week 12       36.1   36.5   -0.4
                                                       Week 16       36.1   36.5   -0.4
                                                        Week 2       36.4   36.5   -0.1
                                                        Week 4       36.3   36.5   -0.2
                                                        Week 6       36.1   36.5   -0.4
                                                        Week 8       36.1   36.5   -0.4
ABC-02-037   ARM C     Y     Oral Temperature (C)   Day 1 Baseline   36.7   36.7    NA 
                                                      Screening      36.1   36.7    NA 
                                                       Week 12       36.4   36.7   -0.3
                                                       Week 16       36.2   36.7   -0.5
                                                        Week 2       36.5   36.7   -0.2
                                                        Week 4       36.1   36.7   -0.6
                                                        Week 6       36.1   36.7   -0.6
                                                        Week 8       36.3   36.7   -0.4
ABC-02-038   ARM A     Y     Oral Temperature (C)   Day 1 Baseline   35.9   35.9    NA 
                                                      Screening      36.4   35.9    NA 
                                                       Week 12       36.7   35.9   0.8 
                                                       Week 16       36.2   35.9   0.3 
                                                        Week 2       36.1   35.9   0.2 
                                                        Week 4       36.3   35.9   0.4 
                                                        Week 6       36.3   35.9   0.4 
                                                        Week 8       36.8   35.9   0.9 
ABC-02-039   ARM B     Y     Oral Temperature (C)   Day 1 Baseline   36.7   36.7    NA 
                                                      Screening      36.2   36.7    NA 
                                                       Week 12       36.3   36.7   -0.4
                                                       Week 16       36.6   36.7   -0.1
                                                        Week 2       36.1   36.7   -0.6
                                                        Week 4       36.3   36.7   -0.4
                                                        Week 6       36.2   36.7   -0.5
                                                        Week 8       36.2   36.7   -0.5
ABC-02-040   ARM D     Y     Oral Temperature (C)   Day 1 Baseline   36.3   36.3    NA 
                                                      Screening      36.3   36.3    NA 
                                                       Week 12       36.4   36.3   0.1 
                                                       Week 16       36.7   36.3   0.4 
                                                        Week 2       36.4   36.3   0.1 
                                                        Week 4       36.3   36.3    0  
                                                        Week 6       36.5   36.3   0.2 
                                                        Week 8       36.1   36.3   -0.2
ABC-02-109   ARM A     Y     Oral Temperature (C)   Day 1 Baseline   36.4   36.4    NA 
                                                      Screening      36.2   36.4    NA 
                                                       Week 12       36.1   36.4   -0.3
                                                       Week 16       36.1   36.4   -0.3
                                                        Week 4       36.1   36.4   -0.3
                                                        Week 6       36.2   36.4   -0.2
                                                        Week 8       36.1   36.4   -0.3
ABC-02-110   ARM B     Y     Oral Temperature (C)   Day 1 Baseline   36.7   36.7    NA 
                                                      Screening      36.3   36.7    NA 
                                                       Week 12       36.1   36.7   -0.6
                                                       Week 16       36.3   36.7   -0.4
                                                        Week 2       36.2   36.7   -0.5
                                                        Week 4       36.3   36.7   -0.4
                                                        Week 6       36.2   36.7   -0.5
                                                        Week 8       36.1   36.7   -0.6
ABC-02-111   ARM D     Y     Oral Temperature (C)   Day 1 Baseline   36.4   36.4    NA 
                                                      Screening      36.2   36.4    NA 
                                                       Week 12        36    36.4   -0.4
———————————————————————————————————————————————————————————————————————————————————————

Confidential
 Page [pg] of [tpg]
\s\nVital Signs
 Title 2
 Title 3
Safety Population
PARAMCD: TEMP

———————————————————————————————————————————————————————————————————————————————————————
 USUBJID     TRTA    SAFFL          PARAM               AVISIT       AVAL   BASE   CHG 
———————————————————————————————————————————————————————————————————————————————————————
ABC-02-111   ARM D     Y     Oral Temperature (C)      Week 16       36.2   36.4   -0.2
                                                        Week 2       36.1   36.4   -0.3
                                                        Week 4       36.3   36.4   -0.1
                                                        Week 6       36.5   36.4   0.1 
                                                        Week 8       36.2   36.4   -0.2
ABC-02-112   ARM C     Y     Oral Temperature (C)   Day 1 Baseline   36.4   36.4    NA 
                                                      Screening      36.4   36.4    NA 
                                                       Week 12       36.1   36.4   -0.3
                                                       Week 16       36.5   36.4   0.1 
                                                        Week 2       36.1   36.4   -0.3
                                                        Week 4        36    36.4   -0.4
                                                        Week 6       36.4   36.4    0  
                                                        Week 8       36.2   36.4   -0.2
ABC-03-001   ARM B     Y     Oral Temperature (C)   Day 1 Baseline   36.5   36.5    NA 
                                                      Screening       36    36.5    NA 
                                                       Week 12        36    36.5   -0.5
                                                       Week 16       36.1   36.5   -0.4
                                                        Week 2        36    36.5   -0.5
                                                        Week 4       35.9   36.5   -0.6
                                                        Week 6       36.1   36.5   -0.4
                                                        Week 8       36.2   36.5   -0.3
ABC-03-002   ARM A     Y     Oral Temperature (C)   Day 1 Baseline    37     37     NA 
                                                      Screening      36.7    37     NA 
                                                       Week 12       36.7    37    -0.3
                                                       Week 16       36.2    37    -0.8
                                                        Week 2       36.1    37    -0.9
                                                        Week 4       36.9    37    -0.1
                                                        Week 6       36.4    37    -0.6
                                                        Week 8       36.6    37    -0.4
ABC-03-003   ARM D     Y     Oral Temperature (C)   Day 1 Baseline    36     36     NA 
                                                      Screening      36.5    36     NA 
                                                       Week 12        36     36     0  
                                                       Week 16       36.2    36    0.2 
                                                        Week 2       36.2    36    0.2 
                                                        Week 4       36.2    36    0.2 
                                                        Week 6        36     36     0  
                                                        Week 8        36     36     0  
ABC-03-004   ARM C     Y     Oral Temperature (C)   Day 1 Baseline   36.9   36.9    NA 
                                                      Screening      36.8   36.9    NA 
                                                       Week 12       36.2   36.9   -0.7
                                                       Week 16       36.9   36.9    0  
                                                        Week 2       37.1   36.9   0.2 
                                                        Week 4       37.1   36.9   0.2 
                                                        Week 6       36.5   36.9   -0.4
                                                        Week 8       36.3   36.9   -0.6
ABC-03-006   ARM A     Y     Oral Temperature (C)   Day 1 Baseline   36.6   36.6    NA 
                                                      Screening      36.9   36.6    NA 
                                                       Week 12       36.3   36.6   -0.3
                                                       Week 16       36.7   36.6   0.1 
                                                        Week 2       36.6   36.6    0  
                                                        Week 4       36.5   36.6   -0.1
                                                        Week 6       36.1   36.6   -0.5
                                                        Week 8       36.6   36.6    0  
ABC-03-007   ARM B     Y     Oral Temperature (C)   Day 1 Baseline   36.5   36.5    NA 
                                                      Screening       36    36.5    NA 
                                                       Week 12       36.9   36.5   0.4 
                                                       Week 16       36.3   36.5   -0.2
                                                        Week 2       36.7   36.5   0.2 
                                                        Week 4        36    36.5   -0.5
                                                        Week 6        36    36.5   -0.5
                                                        Week 8       36.6   36.5   0.1 
ABC-03-008   ARM D     Y     Oral Temperature (C)   Day 1 Baseline    36     36     NA 
                                                      Screening      37.1    36     NA 
                                                       Week 16       36.1    36    0.1 
                                                        Week 2       37.1    36    1.1 
ABC-03-089   ARM D     Y     Oral Temperature (C)   Day 1 Baseline   36.2   36.2    NA 
                                                      Screening      36.6   36.2    NA 
                                                       Week 12       36.4   36.2   0.2 
                                                       Week 16       36.2   36.2    0  
                                                        Week 2       36.1   36.2   -0.1
                                                        Week 4       36.1   36.2   -0.1
                                                        Week 6       36.2   36.2    0  
                                                        Week 8       36.5   36.2   0.3 
ABC-03-091   ARM A     Y     Oral Temperature (C)   Day 1 Baseline   36.4   36.4    NA 
                                                      Screening       36    36.4    NA 
                                                       Week 12       36.2   36.4   -0.2
                                                       Week 16       36.4   36.4    0  
———————————————————————————————————————————————————————————————————————————————————————

Confidential
 Page [pg] of [tpg]
\s\nVital Signs
 Title 2
 Title 3
Safety Population
PARAMCD: TEMP

———————————————————————————————————————————————————————————————————————————————————————
 USUBJID     TRTA    SAFFL          PARAM               AVISIT       AVAL   BASE   CHG 
———————————————————————————————————————————————————————————————————————————————————————
ABC-03-091   ARM A     Y     Oral Temperature (C)       Week 2       36.2   36.4   -0.2
                                                        Week 4       36.1   36.4   -0.3
                                                        Week 6       36.7   36.4   0.3 
                                                        Week 8       36.2   36.4   -0.2
ABC-04-073   ARM D     Y     Oral Temperature (C)   Day 1 Baseline   36.4   36.4    NA 
                                                      Screening      36.2   36.4    NA 
                                                       Week 12       36.9   36.4   0.5 
                                                       Week 16       36.2   36.4   -0.2
                                                        Week 2       36.7   36.4   0.3 
                                                        Week 4       36.2   36.4   -0.2
                                                        Week 6       36.2   36.4   -0.2
                                                        Week 8       36.5   36.4   0.1 
ABC-04-074   ARM C     Y     Oral Temperature (C)   Day 1 Baseline   36.9   36.9    NA 
                                                      Screening      36.5   36.9    NA 
                                                        Week 2       36.3   36.9   -0.6
ABC-04-075   ARM A     Y     Oral Temperature (C)   Day 1 Baseline   36.9   36.9    NA 
                                                      Screening      37.1   36.9    NA 
                                                       Week 12       36.1   36.9   -0.8
                                                       Week 16       36.8   36.9   -0.1
                                                        Week 2       36.6   36.9   -0.3
                                                        Week 4       36.5   36.9   -0.4
                                                        Week 6       36.6   36.9   -0.3
                                                        Week 8       36.5   36.9   -0.4
ABC-04-076   ARM B     Y     Oral Temperature (C)   Day 1 Baseline   36.1   36.1    NA 
                                                      Screening      36.2   36.1    NA 
                                                       Week 12       36.4   36.1   0.3 
                                                       Week 16       36.1   36.1    0  
                                                        Week 2       36.4   36.1   0.3 
                                                        Week 4       36.4   36.1   0.3 
                                                        Week 6        36    36.1   -0.1
                                                        Week 8       36.5   36.1   0.4 
ABC-04-077   ARM C     Y     Oral Temperature (C)   Day 1 Baseline   36.1   36.1    NA 
                                                      Screening      36.1   36.1    NA 
                                                       Week 12       36.4   36.1   0.3 
                                                       Week 16       36.6   36.1   0.5 
                                                        Week 2       36.2   36.1   0.1 
                                                        Week 4       36.4   36.1   0.3 
                                                        Week 6       36.5   36.1   0.4 
                                                        Week 8       36.1   36.1    0  
ABC-04-078   ARM D     Y     Oral Temperature (C)   Day 1 Baseline   36.1   36.1    NA 
                                                      Screening      36.4   36.1    NA 
                                                       Week 12       36.4   36.1   0.3 
                                                       Week 16       36.8   36.1   0.7 
                                                        Week 2       36.5   36.1   0.4 
                                                        Week 4       36.2   36.1   0.1 
                                                        Week 6       36.5   36.1   0.4 
                                                        Week 8       36.7   36.1   0.6 
ABC-04-079   ARM B     Y     Oral Temperature (C)   Day 1 Baseline   36.2   36.2    NA 
                                                      Screening       36    36.2    NA 
                                                       Week 12       36.1   36.2   -0.1
                                                       Week 16        36    36.2   -0.2
                                                        Week 2       36.1   36.2   -0.1
                                                        Week 4       36.8   36.2   0.6 
                                                        Week 6       36.1   36.2   -0.1
                                                        Week 8        36    36.2   -0.2
ABC-04-080   ARM A     Y     Oral Temperature (C)   Day 1 Baseline   36.2   36.2    NA 
                                                      Screening      36.1   36.2    NA 
                                                       Week 12       36.6   36.2   0.4 
                                                       Week 16       36.1   36.2   -0.1
                                                        Week 2       36.6   36.2   0.4 
                                                        Week 4       36.5   36.2   0.3 
                                                        Week 6       36.7   36.2   0.5 
                                                        Week 8       36.6   36.2   0.4 
ABC-04-125   ARM D     Y     Oral Temperature (C)   Day 1 Baseline   36.1   36.1    NA 
                                                      Screening      36.1   36.1    NA 
                                                       Week 12       36.1   36.1    0  
                                                       Week 16        36    36.1   -0.1
                                                        Week 2       36.3   36.1   0.2 
                                                        Week 4        36    36.1   -0.1
                                                        Week 6       36.1   36.1    0  
                                                        Week 8        36    36.1   -0.1
ABC-04-126   ARM A     Y     Oral Temperature (C)   Day 1 Baseline   36.3   36.3    NA 
                                                      Screening      36.2   36.3    NA 
                                                       Week 12       36.4   36.3   0.1 
                                                       Week 16       36.3   36.3    0  
                                                        Week 2       36.3   36.3    0  
                                                        Week 4       36.1   36.3   -0.2
———————————————————————————————————————————————————————————————————————————————————————

Confidential
 Page [pg] of [tpg]
\s\nVital Signs
 Title 2
 Title 3
Safety Population
PARAMCD: TEMP

———————————————————————————————————————————————————————————————————————————————————————
 USUBJID     TRTA    SAFFL          PARAM               AVISIT       AVAL   BASE   CHG 
———————————————————————————————————————————————————————————————————————————————————————
ABC-04-126   ARM A     Y     Oral Temperature (C)       Week 6       36.5   36.3   0.2 
                                                        Week 8       36.4   36.3   0.1 
ABC-04-127   ARM B     Y     Oral Temperature (C)   Day 1 Baseline   36.4   36.4    NA 
                                                      Screening      36.3   36.4    NA 
                                                       Week 12       36.1   36.4   -0.3
                                                       Week 16       36.1   36.4   -0.3
                                                        Week 2       36.1   36.4   -0.3
                                                        Week 4       36.3   36.4   -0.1
                                                        Week 6       36.1   36.4   -0.3
                                                        Week 8       36.6   36.4   0.2 
ABC-04-129   ARM D     Y     Oral Temperature (C)   Day 1 Baseline   36.2   36.2    NA 
                                                      Screening       36    36.2    NA 
                                                       Week 12       36.3   36.2   0.1 
                                                       Week 16       36.4   36.2   0.2 
                                                        Week 2       36.2   36.2    0  
                                                        Week 4       36.1   36.2   -0.1
                                                        Week 6       36.3   36.2   0.1 
                                                        Week 8       36.3   36.2   0.1 
ABC-04-130   ARM C     Y     Oral Temperature (C)   Day 1 Baseline   36.2   36.2    NA 
                                                      Screening      36.3   36.2    NA 
                                                       Week 12       36.3   36.2   0.1 
                                                       Week 16       36.1   36.2   -0.1
                                                        Week 2       36.5   36.2   0.3 
                                                        Week 4        36    36.2   -0.2
                                                        Week 6       36.1   36.2   -0.1
                                                        Week 8       36.4   36.2   0.2 
ABC-04-131   ARM B     Y     Oral Temperature (C)   Day 1 Baseline    36     36     NA 
                                                      Screening      36.7    36     NA 
                                                       Week 12       36.3    36    0.3 
                                                       Week 16       36.4    36    0.4 
                                                        Week 2       36.2    36    0.2 
                                                        Week 4       35.5    36    -0.5
                                                        Week 6       35.6    36    -0.4
                                                        Week 8       36.1    36    0.1 
ABC-06-065   ARM C     Y     Oral Temperature (C)   Day 1 Baseline   36.3   36.3    NA 
                                                      Screening      37.1   36.3    NA 
                                                       Week 12       35.3   36.3    -1 
                                                       Week 16       35.7   36.3   -0.6
                                                        Week 2       38.2   36.3   1.9 
                                                        Week 4       35.1   36.3   -1.2
                                                        Week 6       34.9   36.3   -1.4
                                                        Week 8       34.4   36.3   -1.9
ABC-06-066   ARM B     Y     Oral Temperature (C)   Day 1 Baseline   36.4   36.4    NA 
                                                      Screening      36.3   36.4    NA 
                                                       Week 12       36.1   36.4   -0.3
                                                       Week 16       35.7   36.4   -0.7
                                                        Week 2       36.3   36.4   -0.1
                                                        Week 4       36.3   36.4   -0.1
                                                        Week 6       35.9   36.4   -0.5
                                                        Week 8       36.1   36.4   -0.3
ABC-06-067   ARM D     Y     Oral Temperature (C)   Day 1 Baseline   36.3   36.3    NA 
                                                      Screening      36.3   36.3    NA 
                                                       Week 12       35.7   36.3   -0.6
                                                       Week 16       36.2   36.3   -0.1
                                                        Week 2       35.9   36.3   -0.4
                                                        Week 4       35.9   36.3   -0.4
                                                        Week 6        37    36.3   0.7 
                                                        Week 8       36.1   36.3   -0.2
ABC-06-068   ARM A     Y     Oral Temperature (C)   Day 1 Baseline   36.6   36.6    NA 
                                                       Week 12       36.3   36.6   -0.3
                                                       Week 16       36.3   36.6   -0.3
                                                        Week 2       36.3   36.6   -0.3
                                                        Week 4       36.3   36.6   -0.3
                                                        Week 6       36.6   36.6    0  
                                                        Week 8       36.4   36.6   -0.2
ABC-06-069   ARM A     Y     Oral Temperature (C)   Day 1 Baseline   36.6   36.6    NA 
                                                      Screening      36.3   36.6    NA 
                                                        Week 2       36.3   36.6   -0.3
                                                        Week 4       35.8   36.6   -0.8
                                                        Week 6       36.1   36.6   -0.5
ABC-06-070   ARM B     Y     Oral Temperature (C)   Day 1 Baseline   35.9   35.9    NA 
                                                      Screening      36.7   35.9    NA 
                                                       Week 12       36.4   35.9   0.5 
                                                       Week 16       36.3   35.9   0.4 
                                                        Week 2       35.8   35.9   -0.1
                                                        Week 4       36.2   35.9   0.3 
                                                        Week 6       36.7   35.9   0.8 
———————————————————————————————————————————————————————————————————————————————————————

Confidential
 Page [pg] of [tpg]
\s\nVital Signs
 Title 2
 Title 3
Safety Population
PARAMCD: TEMP

———————————————————————————————————————————————————————————————————————————————————————
 USUBJID     TRTA    SAFFL          PARAM               AVISIT       AVAL   BASE   CHG 
———————————————————————————————————————————————————————————————————————————————————————
ABC-06-070   ARM B     Y     Oral Temperature (C)       Week 8       36.2   35.9   0.3 
ABC-06-071   ARM D     Y     Oral Temperature (C)   Day 1 Baseline   36.2   36.2    NA 
                                                      Screening      36.6   36.2    NA 
                                                       Week 12       36.1   36.2   -0.1
                                                       Week 16       35.9   36.2   -0.3
                                                        Week 2       36.2   36.2    0  
                                                        Week 4       35.8   36.2   -0.4
                                                        Week 6       36.2   36.2    0  
                                                        Week 8       36.1   36.2   -0.1
ABC-06-072   ARM C     Y     Oral Temperature (C)   Day 1 Baseline   36.4   36.4    NA 
                                                      Screening      36.6   36.4    NA 
                                                       Week 12       36.3   36.4   -0.1
                                                       Week 16       36.6   36.4   0.2 
                                                        Week 2       36.6   36.4   0.2 
                                                        Week 4       36.2   36.4   -0.2
                                                        Week 6       35.9   36.4   -0.5
                                                        Week 8       35.9   36.4   -0.5
ABC-06-161   ARM C     Y     Oral Temperature (C)   Day 1 Baseline   35.3   35.3    NA 
                                                      Screening      36.4   35.3    NA 
                                                        Week 4       35.1   35.3   -0.2
ABC-06-163   ARM D     Y     Oral Temperature (C)   Day 1 Baseline   36.2   36.2    NA 
                                                      Screening       36    36.2    NA 
                                                       Week 12       36.1   36.2   -0.1
                                                       Week 16       36.1   36.2   -0.1
                                                        Week 2       36.6   36.2   0.4 
                                                        Week 4       36.3   36.2   0.1 
                                                        Week 6       36.4   36.2   0.2 
                                                        Week 8       36.8   36.2   0.6 
ABC-07-009   ARM C     Y     Oral Temperature (C)   Day 1 Baseline   37.1   37.1    NA 
                                                      Screening       37    37.1    NA 
                                                       Week 12       36.9   37.1   -0.2
                                                       Week 16       36.4   37.1   -0.7
                                                        Week 2       36.5   37.1   -0.6
                                                        Week 4       36.3   37.1   -0.8
                                                        Week 6       36.3   37.1   -0.8
                                                        Week 8       36.6   37.1   -0.5
ABC-07-010   ARM B     Y     Oral Temperature (C)   Day 1 Baseline   36.4   36.4    NA 
                                                      Screening      36.4   36.4    NA 
                                                       Week 12       36.8   36.4   0.4 
                                                       Week 16       36.8   36.4   0.4 
                                                        Week 2       36.8   36.4   0.4 
                                                        Week 4       36.9   36.4   0.5 
                                                        Week 6       37.6   36.4   1.2 
                                                        Week 8       36.5   36.4   0.1 
ABC-07-011   ARM D     Y     Oral Temperature (C)   Day 1 Baseline   36.5   36.5    NA 
                                                      Screening      36.1   36.5    NA 
                                                       Week 12       36.2   36.5   -0.3
                                                       Week 16       36.4   36.5   -0.1
                                                        Week 2       36.8   36.5   0.3 
                                                        Week 4       36.4   36.5   -0.1
                                                        Week 6       35.6   36.5   -0.9
                                                        Week 8       35.9   36.5   -0.6
ABC-07-012   ARM A     Y     Oral Temperature (C)   Day 1 Baseline    37     37     NA 
                                                      Screening      36.9    37     NA 
                                                       Week 12       36.6    37    -0.4
                                                       Week 16       37.1    37    0.1 
                                                        Week 2       36.7    37    -0.3
                                                        Week 4       36.8    37    -0.2
                                                        Week 6       36.1    37    -0.9
                                                        Week 8       36.6    37    -0.4
ABC-07-013   ARM D     Y     Oral Temperature (C)   Day 1 Baseline   39.8   39.8    NA 
                                                      Screening      36.1   39.8    NA 
                                                       Week 12       36.6   39.8   -3.2
                                                       Week 16       36.9   39.8   -2.9
                                                        Week 2       36.9   39.8   -2.9
                                                        Week 4       36.2   39.8   -3.6
                                                        Week 6       36.1   39.8   -3.7
                                                        Week 8       35.8   39.8    -4 
ABC-07-014   ARM C     Y     Oral Temperature (C)   Day 1 Baseline    36     36     NA 
                                                      Screening      36.5    36     NA 
                                                       Week 12       36.4    36    0.4 
                                                       Week 16       36.4    36    0.4 
                                                        Week 2       36.6    36    0.6 
                                                        Week 4       35.7    36    -0.3
                                                        Week 6       35.9    36    -0.1
                                                        Week 8       36.7    36    0.7 
ABC-07-015   ARM B     Y     Oral Temperature (C)   Day 1 Baseline   36.5   36.5    NA 
———————————————————————————————————————————————————————————————————————————————————————

Confidential
 Page [pg] of [tpg]
\s\nVital Signs
 Title 2
 Title 3
Safety Population
PARAMCD: TEMP

———————————————————————————————————————————————————————————————————————————————————————
 USUBJID     TRTA    SAFFL          PARAM               AVISIT       AVAL   BASE   CHG 
———————————————————————————————————————————————————————————————————————————————————————
ABC-07-015   ARM B     Y     Oral Temperature (C)     Screening      36.5   36.5    NA 
                                                       Week 12       36.8   36.5   0.3 
                                                       Week 16       35.8   36.5   -0.7
                                                        Week 2       35.5   36.5    -1 
                                                        Week 4       35.8   36.5   -0.7
                                                        Week 6        36    36.5   -0.5
                                                        Week 8       36.4   36.5   -0.1
ABC-07-016   ARM A     Y     Oral Temperature (C)   Day 1 Baseline   36.9   36.9    NA 
                                                      Screening      36.9   36.9    NA 
                                                       Week 12       36.4   36.9   -0.5
                                                       Week 16       36.2   36.9   -0.7
                                                        Week 2       36.6   36.9   -0.3
                                                        Week 4       36.4   36.9   -0.5
                                                        Week 6       36.6   36.9   -0.3
                                                        Week 8       36.4   36.9   -0.5
ABC-08-101   ARM C     Y     Oral Temperature (C)   Day 1 Baseline   36.9   36.9    NA 
                                                       Week 12       36.3   36.9   -0.6
                                                       Week 16        37    36.9   0.1 
                                                        Week 2       36.2   36.9   -0.7
                                                        Week 4        37    36.9   0.1 
                                                        Week 6       35.6   36.9   -1.3
                                                        Week 8       36.3   36.9   -0.6
ABC-08-102   ARM D     Y     Oral Temperature (C)   Day 1 Baseline   36.6   36.6    NA 
                                                      Screening      36.8   36.6    NA 
                                                       Week 12       36.2   36.6   -0.4
                                                       Week 16       36.6   36.6    0  
                                                        Week 2       36.6   36.6    0  
                                                        Week 4       36.7   36.6   0.1 
                                                        Week 6        37    36.6   0.4 
                                                        Week 8       36.5   36.6   -0.1
ABC-08-103   ARM B     Y     Oral Temperature (C)   Day 1 Baseline    37     37     NA 
                                                      Screening      36.4    37     NA 
                                                       Week 12       36.8    37    -0.2
                                                        Week 2       36.4    37    -0.6
                                                        Week 4       36.7    37    -0.3
                                                        Week 8       36.5    37    -0.5
ABC-08-104   ARM A     Y     Oral Temperature (C)   Day 1 Baseline   37.4   37.4    NA 
                                                      Screening      37.6   37.4    NA 
                                                       Week 12       36.7   37.4   -0.7
                                                        Week 2       36.8   37.4   -0.6
                                                        Week 4       37.3   37.4   -0.1
                                                        Week 6       37.3   37.4   -0.1
